t,ang acc x,ang acc y,ang acc z,ang vel x,ang vel y,ang vel z,quat x,quat y,quat z,quat w,acc x,acc y,acc z,vel x,vel y,vel z,pos x,pos y,pos z,mot 1,mot 2,mot 3,mot 4,dmot 1,dmot 2,dmot 3,dmot 4,vbat
4.52749999999999985789145,-0.178421758840776295551578,-1.19230706107397321780184,1.3038227896932510496697,0.0389537478555573302152482,-0.0117653462366941793243447,-0.00483099843746531872057393,0.0163249649250191593286008,-0.00202303998696392803302579,0.00617975643724891741948024,0.99984551402580934542641,0.0186169457561480913843077,-0.0218210968870277965958593,9.80957473419755920929219,-0.00607174732771806162368033,0.0260643680322180520958497,0.00224563662698191784591883,-0.0590379272216487727131806,1.76127682977397248542673,1.34801928242740598484772,1114.85570057920290309994,1137.10332402715471289412,1130.95252782388752166298,1129.94518522294401918771,877.130535049282570980722,-403.238798154606627122121,-73.9409558357253757776562,-94.8116211206999821570207,163.399920915682201894015
4.53000000000000024868996,-0.345430954128788769708081,-1.04512021668013277420073,1.26931283127828020695915,0.0388343429528638789394179,-0.0142682800182541060646235,-0.00107909323471324205059862,0.0163592492151896501395569,-0.00202576409203008905510202,0.00616444766471072568003731,0.999845044977957342346997,0.0204423813787055416724137,-0.0210674441436938530980427,9.81328917294680103111659,-0.00612083842080999619705839,0.0255135995007358153119359,0.00235741436254298820235364,-0.0590540136603737719767082,1.76134753010297595565703,1.34801800797124871067467,1117.14034865201028878801,1136.17482131905808273586,1130.95646686873305952759,1129.88045260706667249906,979.160297635165079555009,-357.426500979325624030025,72.9052880928990845177395,32.536528730816613119714,163.398565303128009418288
4.53249999999999975131004,-0.536340083663882527531541,-0.820757690668449724213929,1.10971408032459062376063,0.0375755141463504499510506,-0.0167662268746003803587818,0.00308492018956825920367182,0.0163942127574799693945362,-0.00202610870822631308763029,0.00615783906975170183123458,0.999844512768174431549539,0.0227182294102152848580545,-0.0198830558176164573502831,9.81655043491040046887974,-0.0061595890309191188641269,0.024950484264049485605419,0.0024999938845900590220217,-0.0590717349843594072278385,1.76141617975628661518783,1.34801945490060215426809,1119.75150206737862390582,1135.31619152225812285906,1131.31705426435200934066,1130.10786786659809877165,886.326505858342670762795,-261.75287389533525583829,178.023804526177798379649,115.182716451638682997327,163.397022632959846077938
4.53500000000000014210855,-0.674265815544839441919578,-0.602740659594500738371892,0.900232946357513719171095,0.0356059311340000753109969,-0.0184565124767435417840744,0.0059573261479496002548939,0.0164278136407213747050005,-0.00202184595182572368621265,0.00615721941073276227140987,0.999843970570543305598221,0.0253630066034350454273749,-0.0182775381330172737026629,9.81927546117977634310137,-0.00618509861088805019957437,0.0243773954115285677868297,0.00266680556011940784327807,-0.0590904842459426954404123,1.7614829385564771957462,1.34802338638089969080625,1121.57198118130190778174,1134.86605694958143430995,1131.84658589136392947694,1130.45636618932485362166,608.076782895928317884682,-112.383225318427037109359,249.293562298596185655697,147.472739004910778248814,163.395809230852023574698
4.53750000000000053290705,-0.778962374791232647908146,-0.361352489432733792185104,0.646367057784816845256159,0.0332834452333218080988253,-0.0195237658419643404783539,0.00776381791662133016740377,0.0164599931069468394251309,-0.00201160213412168069682662,0.00615968947766180104780309,0.999843438820915086928665,0.0283026891743918054822338,-0.0162314143688526008046935,9.82140033351697638863698,-0.00619475939643807527873465,0.0237975866096543434147215,0.00285028569405355175492289,-0.0591096861176472129772996,1.76154784126122887499832,1.34802954721765244627818,1122.79188598185874070623,1134.75427539566589985043,1132.56352207584518509975,1130.84523156162276791292,370.455684211909726855083,19.658056022854417221879,317.604091420760084929498,144.650253766079345041362,163.394672841602925927873
4.54000000000000003552714,-0.854623956664210981948315,-0.106574018820397742324246,0.38482564783212119818856,0.0311723983306512915369968,-0.0200280553724252984026943,0.00862353878945101154362973,0.0164908892547009078288767,-0.00199549646655869557243523,0.00616088670890553493503239,0.999842941733374512836008,0.0314843273826206707100006,-0.0137327635884859911019618,9.82288269692920934517133,-0.00618642044319873529029108,0.0232151054784148422327483,0.00304229842984100017078131,-0.0591291086054110195946443,1.76161038201610598008529,1.34803813269146965936329,1123.42425960236141690984,1134.96434722969570429996,1133.43460634846769607975,1131.17961745815523499914,115.229160584706463055227,165.817811908394901365682,392.065782398375802131341,103.982971270081577586097,163.393601590674592216601
4.54250000000000042632564,-0.898936150533995337319482,0.158200973717620929637206,0.146100243105639904239723,0.0295635257545718323213269,-0.0198674309134334869941796,0.00854122031146669832835094,0.0165190011540396752831583,-0.00197498952798884439691074,0.00615679139450220694329552,0.999842526827347199969154,0.0348741018616639253391298,-0.0108146282455170716918502,9.82370331932385454365431,-0.00615835980148517550536447,0.0226346985523756226432734,0.00323453008558571234593026,-0.0591492192002706779208054,1.76166926997517436781493,1.34804960582193200657741,1123.36803178478226072912,1135.5833644552078567358,1134.5238509878370223305,1131.36514641797316471639,-147.52834734986524267697,356.601905137548214952403,537.503430975005016989599,35.5098493344038033114884,163.39261006285627786383
4.54499999999999992894573,-0.916789589147981365258033,0.481066475315589492378621,-0.083612097219462278019364,0.0275950316095298284202464,-0.0189375081852536479576354,0.00766074554151908570370777,0.0165418925522139784178854,-0.00195168581530177063544651,0.0061464010842877201540313,0.999842239055061199337615,0.0384352901389272416654563,-0.00754205660492782148374147,9.82386616146401081550721,-0.00610925856645464209621066,0.0220616119545547911817707,0.00341879354121078565462155,-0.0591701824953224791991957,1.7617233959904403661767,1.34806458545780594171504,1122.68661786561210647051,1136.74735675538340728963,1136.12212350334266375285,1131.35716670482725021429,-308.930050807618727048975,474.644224448330646737304,632.700847246419357361447,-41.0309164022246122272009,163.391513451985218807749
4.54750000000000031974423,-0.895675855762076422728057,0.750344746042683308218102,-0.215988645319765609764673,0.0254426279985636542846361,-0.0176003913469823351778398,0.00643892620507991158412819,0.0165599316988510152082181,-0.00192500901419856147549214,0.00613154680090775405093551,0.999842064626994653231407,0.0420848409504387399593384,-0.00393856132246628298787527,9.82339677932228383383517,-0.00603836319779622529568819,0.0215012296136981306826641,0.00358726847603175677536846,-0.0591910245916239807772996,1.7617736497951974605769,1.34808273932525990446152,1121.82338153074420006305,1137.95658557744945937884,1137.68735522406905147363,1131.15999183596204602509,-347.108857657174780797504,492.276820356675273160363,656.816520202815240736527,-107.340153418865625667422,163.390677735628599975826
4.54999999999999982236432,-0.824798896120837010670357,1.01427963502704754361616,-0.286976035707500187754704,0.0228189931940367893292709,-0.0158004367151313475370333,0.00527842811905643305436797,0.0165776611993874410655447,-0.00189470663325829922173094,0.00611579039788414779293957,0.999841910379752563109435,0.0457446991202796748865467,4.0971924263555337120124e-05,9.82233959890792363012224,-0.00594560875557093113791263,0.0209586636714443712292688,0.00373295355031376310112057,-0.0592115690540295364074908,1.76182063728343418773647,1.34810388772656586375831,1120.95107357732626951474,1139.20874085716673107527,1139.40620610435667003912,1130.82046593773293352569,-323.218814217223155083047,508.83861819935367520884,750.084421455510550913459,-159.790969275539964655763,163.389923251875131882116
4.55250000000000021316282,-0.673785024802948107058853,1.31377584076840570048716,-0.315882399119810419740872,0.0194865990425306841171693,-0.013027696872018271895266,0.0044123069185712559051038,0.0165977647677613311671951,-0.00186022110917797309573296,0.00610402305271737569136725,0.999841706776954164404003,0.0493306071124763600987961,0.00439285747521953040539699,9.820756730765150877005,-0.00583165412752455376843574,0.0204383741082207991135444,0.0038503595275694805361022,-0.0592312687228649381587786,1.76186457633605852990399,1.34812753805016338759515,1120.20728745965811867791,1140.50077866844617346942,1141.43777733134652407898,1130.36103698958436325483,-189.682606934370085127739,408.796800473882797177794,699.080859252732238928729,-158.398130742401662018892,163.389111463716005800961
4.55499999999999971578291,-0.497792353090633854506564,1.53530957160386982707223,-0.307495925929599012160764,0.0168872225153712043899112,-0.01008182362837112093501,0.00403707784580574057659019,0.0166163991820326983894773,-0.00182290506124508223766145,0.0060956408316846164008318,0.999841518902488624043201,0.0527970268419009902682859,0.00897517881139756057429224,9.81872550618678197054123,-0.0056980882241176233557467,0.0199437780809771647572148,0.00393608581204794860664009,-0.0592497209858533352422327,1.76190603309175952695398,1.34815239940676190322222,1120.00266054265443926852,1141.25272485953610157594,1142.90161040062025676889,1130.02847528402094212652,21.0437862369876640400435,216.831464014881106550092,486.571063208622376805579,-102.407525883156637291904,163.388512416986685593656
4.55750000000000010658141,-0.293622837243645795624047,1.70394079269054476988288,-0.279277285460519997251083,0.0150388181988055976562313,-0.00633945080088569711679325,0.003846596152299257276308,0.0166353029826875539742836,-0.00178989823450541210396458,0.00608914547505647399394668,0.999841310276954664537641,0.0562158302344972632402786,0.0137469720175678322693358,9.81633031992070037574649,-0.00554707058342865117622766,0.0194771871084272220342459,0.00398859617412516964662927,-0.0592661012883410054374878,1.76194595553203936511011,1.34817657035036675416961,1120.3125063908430547599,1141.58493598852055583848,1143.8706326473895842355,1129.84899936016859101073,244.238498249349532898123,56.3721996146708193009545,261.810504205236611596774,-28.5812138131360242709889,163.38799272598683387514
4.56000000000000049737992,-0.065706824545581576924036,1.81183522998132495729351,-0.229365722024349960594947,0.0145407223367814229103567,-0.00052878320138845615917822,0.00342919332207942094414843,0.0166576061093581841154876,-0.00176567683862275618539295,0.00608558364223180624230647,0.999841010884842895656277,0.0596108847164327215750745,0.0186889325821656682169447,9.81366078555694620888517,-0.00538106512596439167522844,0.0190397020084953384755355,0.0040083118654030865102289,-0.0592798391752539996502058,1.76198563111902362088301,1.34819840115747080488973,1121.22385303390137778479,1141.5345858576094997261,1144.21066292164664446318,1129.88556921495523965859,397.081424872075615439826,-75.4631497380176057276913,-35.4042258049510820683281,57.0890878280818796497442,163.387459180183412854603
4.5625,0.0672730542978017681532421,1.80222380148648042563764,-0.173926166801686293839069,0.0157329231195075976146303,0.00519597665691783495295342,0.00263357528328840009498868,0.0166858122759634304455023,-0.00175023373349053362919847,0.00608680065017426410317603,0.999840566008518560892071,0.0629231812109346255734721,0.0237668767443444950426823,9.81080857323517996348983,-0.0052026509201651806660327,0.0186311918774570151047243,0.00399743413826873436600629,-0.0592917280963717735486895,1.76202500033757969433168,1.34821693049433499744794,1122.29791351520339048875,1141.20762023983047583897,1143.69361151836483259103,1130.13444479930899433384,444.580296428703547917394,-164.319526228658872923916,-378.051579390384063117381,133.261303555221388705831,163.387088110955602360264
4.5650000000000003907985,0.100338775149877351688943,1.68157187442909283880965,-0.103864078213024499386385,0.0178539940098415873814819,0.0105294234092546783176925,0.0016176612354506761555506,0.0167222648937441313587993,-0.0017413064159016535849267,0.00609524997396055420034733,0.999839925472377100135191,0.0660553616089827877466689,0.0289433761803790101652112,9.80786314537904857502326,-0.00501424715467952905600946,0.0182503901123801381967127,0.00395952372668645184716762,-0.0593025584638335115372776,1.76206435144274453641344,1.34823185728626859791746,1123.44675451604484806012,1140.71298822646622284083,1142.32040502469476450642,1130.55187573273133239127,425.906077181216460303403,-210.046025755450443739392,-675.934124984601908181503,177.400630540345588315176,163.386791215424835854719
4.56749999999999989341859,0.0389852586523701249987539,1.4794158680900257873958,-0.0274724220654195723512192,0.0199137175373804847788861,0.0146532422604155887491117,0.000963101386914951961698561,0.0167630162989725987887635,-0.00173464563737107252405778,0.00611149555688766769889764,0.999839159138646293989439,0.0688766168009860985099735,0.0340605238213621541731868,9.80491056923942139178507,-0.00481803616743224551871583,0.0178949459811504237027879,0.0038992023979192115198944,-0.0593125366577646681576219,1.76210448371613326301599,1.34824311214471892483857,1124.42744390110942731553,1140.15739011105324607342,1140.31394089344189524127,1131.02144795201070337498,295.660773636706778688676,-226.988147436718747940176,-913.523059397968040684646,175.155582202573071981533,163.386553938874641289658
4.57000000000000028421709,-0.121732025009702038431669,1.20305744497651589952625,0.0408079350736285026424177,0.021077555904754824434022,0.0173272249355359911349161,0.000964888834029728210267551,0.0168009104811089049480444,-0.00172441792797948991594614,0.00613117961643970792867675,0.99983842307274506389092,0.0712308901283592449393822,0.0389034723596905496201259,9.80203000877837915538748,-0.00461597933025729382366942,0.0175616177148469297664146,0.00382149797570533172191842,-0.059322291520683155530147,1.76214572419960258109484,1.34825207885075637470607,1124.92505838422835040546,1139.57804748928265325958,1137.75278972770502150524,1131.42765364374417913496,49.8889100251755479575877,-257.223636336544586811215,-1177.4576885725559804996,136.886158182054003873418,163.386385943808761567198
4.57249999999999978683718,-0.380984419400378249154215,0.814072238609102161177589,0.0886748412456164758488342,0.0207409448881013744325763,0.0197550339390783341597668,0.0016984692570496981271766,0.0168318248567994703523976,-0.00170830784010073317459588,0.00615081639176359457749088,0.999837811623245142911287,0.0730375546820915266810204,0.0433233568146178804614266,9.79928857020764532137491,-0.00440955330224679364903295,0.0172466435112547632202418,0.00373124441321379249000834,-0.0593322032198981968997842,1.7621878616028694430895,1.34826036154986739212802,1124.67688845123529972625,1138.87127192937055042421,1134.42665245057924039429,1131.70587874292095875717,-252.417406448881507685655,-260.827757070643315273628,-1195.82126102302754588891,56.3936626846055517603418,163.386260712325025679093
4.57500000000000017763568,-0.605932499868817031618562,0.456609650075026962667835,0.0851545116059581469469819,0.0190364653968634021941053,0.0215299952266281013901761,0.00277566797904690290219043,0.0168572567291192278171597,-0.00168819424110617220292918,0.00616803262713716549114906,0.999837310746253815629814,0.0743047587684957100417904,0.047289250888203765432749,9.7967386529549145279816,-0.00419980227344505813863451,0.0169460380901198977288136,0.00363277897111988212763833,-0.0593418424974468047827791,1.76223123509815349230223,1.3482679716401699820949,1123.66297135198396972555,1138.27390870392946453649,1131.77368342259001110506,1131.70962195716720088967,-562.567153640714536777523,-235.483568531713473248601,-961.192917427681550179841,-45.1293481202365498461404,163.386217161102280215346
4.57749999999999968025577,-0.787012628616992948593634,0.0802964842693329877709729,0.0297231986437759138075521,0.0163105561373768394306527,0.0227764466177876184760365,0.00393563317978717647910303,0.0168778872699430863846271,-0.00166803223754731326511358,0.00617827010259559133986684,0.999836930649076416344201,0.0750867544403919229267785,0.0507637909736001202709588,9.79441993326022419807941,-0.00398753991200089408925011,0.0166557973847157730906687,0.00353004793424313827870931,-0.0593514253919039322382467,1.76227556845792010520313,1.34827476535044121774831,1121.86405268303178672795,1137.69385408671200821118,1129.62068786344093496155,1131.4802320023197808041,-915.244288258710639638593,-234.029988353227508923737,-767.517026621379045536742,-138.47953373938548793376,163.386233399644481778523
4.58000000000000007105427,-0.908964533885378012101341,-0.365988918803136664692488,-0.08499283243175341506781,0.0122075118080092782923973,0.0228536833717777644603419,0.0045946590653176853577544,0.0168943586331884929019331,-0.00165003224658028901754292,0.00617954400939866102526743,0.999836669824903379044656,0.0754091811763839825477618,0.0537186262216293453075622,9.79235989681336960188673,-0.00377328015438462352482141,0.0163722137844520276850346,0.00342646105212114897992093,-0.0593610168709063218406286,1.76231999404291928001953,1.34828089847377396992556,1119.08674991069051429804,1137.10375876216335200297,1127.9360982894831977319,1131.01722428847028822929,-1057.0534767573628869286,-180.318502314020406629425,-446.126112630211821397097,-182.378524100357623183299,163.386318234362590828823
4.58250000000000046185278,-0.915736290563280763699083,-0.706334186402439834218114,-0.200620093568504159753374,0.0086035497064514410148206,0.0214359169143606004270808,0.0041441656048355098029834,0.016908867125961509619847,-0.001638926538439415634546,0.00616896631664776238374026,0.999836502835872886763013,0.0753527120966187013983983,0.0561658265777994214484892,9.79057280409465491288756,-0.00355739857562437263027721,0.0160920352415017398062247,0.0033248040917736908575475,-0.0593705695949658315835329,1.76236321304158938261253,1.348286758205452962045,1116.57878529924414579,1136.79226157514176520635,1127.39005730028952712019,1130.56833938181785015331,-958.470520961666352377506,-66.3275105359403340798963,-48.8004618922342530140668,-168.520862061135574094806,163.386440690573181200307
4.58499999999999996447286,-0.82918894976908552596484,-0.979614952243045067348248,-0.308967661184384789763158,0.00568357040699109510722975,0.0186632590739678680402669,0.00299589357077568226722653,0.0169213507382915233356879,-0.0016388370945772216813463,0.00614333936249849849736693,0.999836445846197130471467,0.0749913523449260432940378,0.0580832652013274775004703,9.78906270422283597554269,-0.00334022257987793679684385,0.0158124771860322609062788,0.00322731014731727616079437,-0.0593805473189098209640946,1.76240519736842649045627,1.34829284824690920352452,1114.29439730588228485431,1136.77212120948365736695,1127.69209598002203165379,1130.17461997816462826449,-871.007675125265791393758,68.3266349783039856902178,279.74896858746120642536,-139.244936593107240696554,163.386613723398539832488
4.58750000000000035527137,-0.647213934231176235556404,-1.19978872736967123735496,-0.404744182357136605965309,0.00320257973076080093219331,0.0141397969411149321272703,0.00141107304878689823399163,0.0169319684659482022626165,-0.00164813887172218244935029,0.00610759239553537638250935,0.999836468694206614848952,0.0742930036760825474040359,0.0594618261894389044108777,9.78782475318802447361577,-0.00312192217379674312113802,0.015531237109865749998483,0.00313558176874676125880925,-0.0593911345748195929061808,1.76244654291376390276014,1.34829932869989721488935,1112.2237469236179094878,1137.13389475003327788727,1128.78880214322680330952,1129.87211469885232872912,-611.861781477695672037953,188.748378466338579073636,469.787310399452508136164,-77.1993628026410192433104,163.386876265071350644575
4.58999999999999985789145,-0.46012862870846543694725,-1.28466780339169961422385,-0.444146764456092080219918,0.00167351102037600917883664,0.00984070328628208756960305,9.39797509492915089266904e-05,0.016942887551341056368015,-0.00166323617738082379924336,0.00606987466381290682870819,0.999836490159886293049851,0.0731938225078926640865262,0.0603401253264383985452923,9.78684499682195507830329,-0.00290280976057647301449838,0.0152464250700622173939625,0.00305066277899477319296428,-0.0594021593885795534673022,1.76248725532958872008749,1.34830654523803850075581,1111.23508839849387186405,1137.7158631018153300829,1130.04103253201924417226,1129.78862316415143141057,-236.577603205483256942898,263.208531403466793108237,495.895290608915843222348,-7.15981594516976471709313,163.387138253058736836465
4.59250000000000024868996,-0.275422002988613856544475,-1.27752333293571584960091,-0.433933202185593336341896,0.000820338313725338451158631,0.00596854364741035859492913,-0.00121161979527752540833352,0.0169551963158492829952806,-0.00168252179406377954697105,0.0060319804639195851933553,0.999836481992708692168037,0.071675162727356023228964,0.0607444513848852951642954,9.78610216985953229595907,-0.00268376903749564365425639,0.0149564919208180473891856,0.00297328877173669726269312,-0.0594132534580852772476689,1.76252733847138287615053,1.34831443597811451162727,1111.0408589075905183563,1138.44993740705058371532,1131.26827859627132966125,1129.83631561912648066937,32.7338288088419773202986,289.43081074062939705982,432.821889853139623483003,24.7855157449981398087857,163.387442126689791166427
4.59499999999999975131004,-0.123243050681381041688844,-1.21562373092170128430212,-0.380428052788723103372348,0.00102971455439263004372208,0.0029803085159032360190734,-0.00252164322006086802710478,0.0169668136647278949835638,-0.00170365321548571115733983,0.00599608473008664873832307,0.999836469913890857341698,0.0697109535665338397869562,0.0606460882612937235425221,9.78557061429957286691206,-0.00246617934544053271639363,0.0146602785507534017633846,0.00290406195795854353558507,-0.0594237437710030610982237,1.76256657069313726893256,1.34832251820086024274303,1111.39875754253807826899,1139.16301715551844608854,1132.20514198128489624651,1129.91255074287641946285,229.342890856064855142904,243.325565369883122457395,254.974469252925672435595,14.0739994690196272841831,163.387778690113663060401
4.59750000000000014210855,-0.0415550989065173181913337,-1.11981225154946728572725,-0.276609267475045217388185,0.00247063078882202215996733,0.00104336862166623132661125,-0.00370524934230886515001968,0.0169766205978154477440611,-0.00172380881528530829904788,0.00596660555783214315017648,0.99983645178659164010071,0.0672738933875028366493609,0.0600409442765554857146526,9.7852200500559884943641,-0.00225190803637871769446455,0.0143570384457899751645682,0.00284342407063965362662428,-0.0594333024012526078827534,1.76260419830477466085483,1.3483304502523767443023,1112.18757336187081818935,1139.66656523389997346385,1132.54315094253593088069,1129.90668561647157730476,378.462868094024941001408,135.157395500188414416698,-20.4497518342090955911772,-44.1816515410140766562108,163.388152592090591497254
4.60000000000000053290705,-0.0417738626294169856922878,-0.997815273697362226101859,-0.103433025811080117617458,0.00424562933114994243283258,-0.00055338329564230074458786,-0.00451628768795139454161891,0.0169868092953133834055457,-0.00174242475600746129019147,0.00594652033572373381331566,0.99983637395530366998031,0.0643895131849835378190505,0.0589949448913297258556554,9.78501557476921313138973,-0.00204337994890097613895352,0.0140463529503401761411308,0.00279164377795513510976955,-0.0594418547023765689307773,1.76263998688425416183634,1.34833784301026393670497,1113.29107188300849884399,1139.83880413301949374727,1132.10289322211383478134,1129.69164248517131454719,388.540282114544538671908,-23.6292552389846193250378,-295.237563344159696043789,-118.627047093061975147066,163.388642308445696471608
4.60250000000000003552714,-0.113616437440715978279826,-0.899407203890694617598456,0.0700266590683692458085829,0.00486250286853632043837514,-0.00174986256254616224549425,-0.00455900691987111503916674,0.0169964382413513477587674,-0.0017592084077590369912969,0.00593999400380907510710315,0.999836227919902564842403,0.0610970157238332201021791,0.05751690440917131552645,9.78492215481379901120818,-0.00184344444352343332996225,0.0137279661651747344336405,0.00274896203822163438454385,-0.0594485854040938607734113,1.76267419009389647577279,1.348343827814657558406,1114.13027477244349938701,1139.54841895770505288965,1131.06696312581516394857,1129.31355038100628007669,289.793318467770234292402,-203.454631622848665983838,-510.453346595169875854481,-183.814626954930929514376,163.3890834435590306839
4.60500000000000042632564,-0.228123570307493028774815,-0.796187681651151946127243,0.258593803822291357086272,0.00407455293098954191705063,-0.00330690295117315544853875,-0.00419768870692885723294729,0.0170073174538510028808158,-0.00177577315481535131548585,0.00594889454191309570429969,0.999835967543246662003753,0.0574818041554768649481488,0.0556733706220674529063785,9.78490347643458413529061,-0.00165532992544851565233643,0.0134016555699963159364874,0.0027153227357911563499826,-0.0594535880757749435332471,1.76270682372987774755302,1.34834927140751847929323,1114.74003847534731903579,1138.82153097490527215996,1129.55062648913803968753,1128.7725693503966795106,213.631081836369958182331,-391.19651561310018905715,-697.530026800919927154609,-253.147201259895098246488,163.389557962913727351406
4.60749999999999992894573,-0.373865468930025035554365,-0.64129094858209956253603,0.484372447904993619349767,0.00170910460134263749581995,-0.00585877679409829016377032,-0.00333885571677076291655095,0.0170176261582319250653672,-0.00179057256638058982095574,0.00597286758543971903201442,0.999835626197399518488851,0.0535753672495666022346228,0.0534636347698758118696105,9.78492682975211813811711,-0.00148248651856386858514936,0.0130670708321863685008601,0.00269041849993915558811319,-0.0594573812560607942168112,1.76273796477069799593096,1.34835464743638544504734,1115.19843018162532644055,1137.59243637963959372428,1127.57931299181063877768,1128.04781437470683158608,139.561707024225398754425,-475.138948244658536168572,-681.543843228851983440109,-259.785248014446608522121,163.390165520696342582596
4.61000000000000031974423,-0.484052050699276315004482,-0.467468304781510191059368,0.657481615343868175393993,-0.000491809402036694903737057,-0.00838257653935137701795011,-0.00230764800642516794068615,0.0170257552804403064494743,-0.00180188200289244874335859,0.00600979186254038070386096,0.999835245522974203069566,0.0494135180307011534495132,0.0508939488788674176955595,9.78496236094877680500304,-0.00132839056284201392083011,0.0127236540107168085572686,0.00267355843032776249734717,-0.0594596545029747250432628,1.76276829691675640532367,1.34836015503427453232632,1115.43784701046843110817,1136.44583623368203006976,1126.14290727299385252991,1127.47364311032447403704,97.3494854449220667902409,-435.505090375600218521868,-460.081889618878278724878,-204.567352823782840687272,163.390703651941066709696
4.61249999999999982236432,-0.581479923217106620114691,-0.238119082324620784385516,0.793574173908833779833571,-0.00195994505761541704114137,-0.0107505971870925712274847,-0.000806315962302625002973422,0.0170283234135286676291798,-0.00180868247112285474541282,0.00605711943906527428699293,0.999834899944211152877926,0.0450525073412793158889045,0.0479379279359839760576989,9.78498495529016487637364,-0.00119633893107058599664105,0.0123705871908982058260396,0.00266373221046503107223291,-0.0594595741112441539266698,1.76279819337309628934918,1.34836573989128227779588,1115.68517760884992640058,1135.41491092776163895905,1125.27890354371629655361,1127.02497761058793912525,143.661592157153222615307,-376.694859025573180133506,-191.880482650462454330409,-153.323916551974974709083,163.391275296279218309792
4.61500000000000021316282,-0.696845586238233227760475,0.0832389835919373488604123,0.883588791953653251987078,-0.00300083010534269150476616,-0.012282554645106648003039,0.00197148569091026284669232,0.0170190927361543904716701,-0.00181249054259048354535711,0.00610894330280717118980549,0.999834728387579252384398,0.0406031318720740386218893,0.0445149863955587032915417,9.78497547621624264024831,-0.00108927082849351753585099,0.0120068093804228046006521,0.00265965294416743757224819,-0.0594572425913112642681391,1.76282795984638296360458,1.34837125617365383156709,1116.15615497125418187352,1134.5623619385542042437,1125.18350485974156072189,1126.70702352756461550598,214.73459280551199412912,-225.196980160403910531386,137.180944814011326116088,-73.3907472835669238975242,163.39200047985690389396
4.61749999999999971578291,-0.798041295679551176966982,0.357676941972234596622826,0.875667332161957800984453,-0.00374008889958986042237332,-0.011745270070394315739537,0.00508987197030062472197232,0.0169951031267559747595097,-0.00181556299785193536039385,0.00615839596666430295901495,0.999834818937935465577027,0.0361946002120422938297395,0.0406097916102506339974809,9.78491973381371771267823,-0.00100942080703794430721065,0.011631151604689554668326,0.00265959972021341225015267,-0.0594533085682436221452996,1.7628584637456967687541,1.34837657457188431209261,1116.75885057287746349175,1134.28892602695964342274,1125.96480826778633854701,1126.65802387417011232174,282.75653403453054579586,-12.6460774733916849754678,475.896535910634270294395,28.0511150202989085755689,163.392637255540279284105
4.62000000000000010658141,-0.897968810005756901126972,0.592358830036450179079566,0.766617568492758416631716,-0.00508665864501959240351336,-0.00939987851498266802074966,0.00836377090494187964975215,0.01695706424098398362732,-0.00181810913645005160603485,0.00620188587910678722908697,0.999835181456601329585965,0.0319179057026338641733787,0.0362793726737680177762968,9.78480954363348942592893,-0.000957983652582085083021513,0.011242523374339485550677,0.00266140645709249000147589,-0.0594485933319535142516088,1.7628894932588989874489,1.34838261199240605492378,1117.56993764142680447549,1134.49913155118724716885,1127.56298753929468148272,1126.84727910266610706458,345.658480132252009298099,153.117201782582640134933,740.842298761001643470081,114.073396409621992120265,163.393306655019841855392
4.62250000000000049737992,-0.980982940052605223435478,0.76606192733019395912919,0.576822448352593664111509,-0.00736350379144788767110663,-0.00632094506101124609109831,0.0110748508282075674297174,0.0169095086835482771858707,-0.00182009093823354284324978,0.00623732704376135128898628,0.999835752256766907564156,0.0278584259080056351187693,0.0316556142316978816886319,9.78464296551824297409894,-0.000934993480225596008091615,0.0108401354329586020047715,0.00266252367811247543302744,-0.05944350247013317073419,1.76292076206786929581938,1.34838987143712474292556,1118.4871429735389938287,1135.05451203587267627881,1129.6690197615919259988,1127.22839085621831145545,367.035895563920917084033,279.056008848653220866254,907.159642636744365518098,194.0004998420632205125,163.394001709526634158465
4.625,-1.01973850657830156229977,0.85220328053599558870701,0.311431894954947774412091,-0.0106551961283971804994586,-0.00332346216777553403465273,0.0126346600914616011279712,0.0168542484720365544348386,-0.00182062595187613171336671,0.00626437163421080661640516,0.999836505186744273210309,0.0240806973784321864950897,0.0268166509300860889108975,9.78442683848622074549439,-0.000939253836577990828746176,0.0104236663440865646307332,0.00266030923366191449433438,-0.0594387328174563675520226,1.76295109954198503388056,1.34839849935396038915769,1119.40511711924636983895,1135.89441159543048343039,1132.09878575247830667649,1127.81728160187640241929,367.520648281659873646277,395.806638147595776899834,1067.67412229007732094033,296.834364990724623112328,163.394725274241466195235
4.6275000000000003907985,-0.994479317633634174455892,0.860346305009644929384649,-0.0514336101181986776742505,-0.0147742446387663980272853,-0.000292415691327205576593301,0.0131291305759943435077508,0.0167963545365984318058494,-0.00181806850992792903322359,0.00628559125315534313743759,0.999837343407736889311366,0.0206279572269166613929237,0.0219031773177529309748479,9.7841744465686186771336,-0.000968332064928204764957254,0.00999339524764112155374995,0.00265209356111443389503179,-0.0594352462645348286751634,1.76297941262385138294633,1.34840826930716661813392,1120.32474621494725397497,1137.03354522661061309918,1135.00739037304219891666,1128.71256268117190302291,283.025999027455895884486,413.468276451030476437154,1020.80032931951234331791,348.804980568782582395215,163.395622439318174201617
4.62999999999999989341859,-0.91216946771485662992518,0.802855066261071725897125,-0.355133465651493562820207,-0.017635031986867003711561,0.00178043688395732447975195,0.0124232097570607154940481,0.0167412586899508691873351,-0.00181127938732673085878155,0.00630541940837014026205454,0.999838152144250535968695,0.0175439867782091474257555,0.0170610320088256106618729,9.78390582198204583619372,-0.00101870160732900165434511,0.00955013950948760403925064,0.00263544526110355602568913,-0.0594330783420577712927724,1.76300565815203391650812,1.34841837903978034596264,1120.82024711438361919136,1137.96175297768559175893,1137.20278739907575982215,1129.56130650472027809883,123.53888759944574360361,345.129939049555162000615,800.557883552454541131738,344.077901525595791554224,163.396390500237771448155
4.63250000000000028421709,-0.777958751302096462865165,0.701129317679797692264287,-0.619137029930681648259849,-0.0196571924135796119448294,0.00347389290115502095621092,0.0104959192792097259078199,0.0166879546306087159224241,-0.0017954156531161057606949,0.00632479183818047008963648,0.999838951736176095863584,0.0147876838367843529975509,0.0123083798793460486020734,9.78364922546955284587966,-0.00108605919112829429375167,0.00909508139294298856292187,0.00260841459364355042135908,-0.0594326352791381892770595,1.76303009824009082606722,1.34842826886670175134952,1120.94244065294446954795,1138.75919492185835224518,1139.01017979080438635719,1130.43295218879984531668,-35.0868463317063472572954,310.171599516031392340665,699.938945775526349279971,367.491074873131424283201,163.397174635640084261468
4.63499999999999978683718,-0.576767693774911216486601,0.553803610669994950121975,-0.853071801903280579892908,-0.0212626370263086922340889,0.00490997775217173575146301,0.00702528765618156032790598,0.0166373769940465349170822,-0.00176665038928730012968149,0.00634258319911315451150591,0.999839741355237232589559,0.012324749441370894120773,0.00769847076168322930200816,9.78343657476786354720844,-0.00116548523129466545349142,0.00862969194550792552400598,0.00256940422182201297363058,-0.0594344251905571732685907,1.763052958521380109147,1.34843774974672858668612,1120.64481288272509118542,1139.51261097526571575145,1140.70248212795331710367,1131.39876187908589599829,-171.446647598808368684331,243.767806928831959112358,549.982857037696589941334,327.329830379865313716437,163.398127655770338151342
4.63750000000000017763568,-0.388277715908151577206553,0.426098389139924982327301,-0.965176966338172737103207,-0.0220647084223467709884758,0.00545691526866800332568053,0.0037563709024898677552029,0.0165949307164228732069944,-0.00172817960750470587215355,0.00636032385239374171981286,0.999840414799314736171709,0.0102441440970144764799343,0.00336784137601761623947993,9.78330078394525948226601,-0.00125160812779457502642855,0.00815565419632498060653614,0.00251714397462801924704179,-0.0594385754866581586530749,1.76307335421186484047951,1.34844769104522277380909,1120.08520741495044603653,1139.97803395650248603488,1141.76009407599281075818,1132.06960134069913692656,-262.430943646319178697013,161.339924300049261773893,363.812437721943297219696,230.798835390174104986727,163.398927073969247203422
4.63999999999999968025577,-0.187665621702034018936089,0.30463345043946821188996,-0.993602602198532358634964,-0.0224531445129379399194836,0.00562750619046075740981028,0.000778506730743757919925574,0.0165668746974124286852614,-0.0016858124215832839820628,0.00637570480200122871594637,0.999840871170123879352332,0.00867082487028235371351315,-0.000533649612203757062189879,9.78327558212034809059787,-0.0013390672272941743590341,0.0076746870424164942772749,0.00245080492555564037962523,-0.0594450033739135144661425,1.76309069443512611563563,1.34845868607032892683151,1119.33265816449352314521,1140.31931059676594486518,1142.52154431656299493625,1132.55275605603674193844,-340.221892967982057598419,134.752343897210408840692,274.191300562012145292101,167.873582569976804279577,163.399726208281720118975
4.64250000000000007105427,0.0628876635850938170424484,0.165403312440213751122187,-0.951892879100920907831096,-0.0226175763777780383656513,0.00586303431403160241197625,-0.00209977519877337266696049,0.016553650950085589677041,-0.00164429966483088467986418,0.00638619050450643047783794,0.999841109090826796190754,0.00769290939669505652309667,-0.00397294100807540906394877,9.7833955592512591437071,-0.00142278607846260001824901,0.0071882949151389112854571,0.00237023161682884103002023,-0.0594529039370238696071702,1.76310521899761374342575,1.34847050931357692604706,1118.38409795011057212832,1140.65179567598852372612,1143.13105057880284221028,1132.90896925354900304228,-333.107927317262465294334,117.354377368592238894962,169.183509391969806756606,98.2966862874792326465467,163.40067823705015825908
4.64500000000000046185278,0.278867294775107132931424,0.0468850302249521136421784,-0.874131759727556301164952,-0.0224566143901907787350236,0.00624908000548345544250539,-0.00376667266680600536579715,0.0165544662996473246341367,-0.00160596742041569577434668,0.0063937776774493906492558,0.999841123106648410612252,0.0073357008363750253465696,-0.00694377092698858500163794,9.783692612381782893749,-0.00149816872509952905660746,0.00669756211237470221175894,0.00227602941904385663168808,-0.0594613808230505871965654,1.76311770254167221594344,1.3484832958877155384414,1117.66711852790695047588,1140.90608248360899779072,1143.36746186352297627309,1133.04423948747421491134,-255.541237901894419337623,103.200005898681794747063,26.1965776576749824755552,30.5001271226053312091153,163.401461015077842375831
4.64749999999999996447286,0.499371427781819421376497,-0.0857511884866919288361586,-0.771888640844835438592497,-0.0217941997271888579512655,0.00658179747488142966038716,-0.00474758737333035724104136,0.0165690484931062947948632,-0.00157194545153054423061723,0.00639916479457428109128836,0.999840910725739884234997,0.0075871965549371145343116,-0.00943173935430591248163523,9.78419313258026157598124,-0.00156132860914422427582593,0.00620297463545713221449995,0.00216972275138707648700631,-0.0594703700604056473277836,1.76312914560153766174722,1.34849685982779199378001,1117.10639176060112731648,1141.16779570548192168644,1143.26203346709121433378,1133.06146988916202644759,-196.439520933067427677088,107.571114759414300010576,-108.752846705331236876191,-4.41061815936346057753781,163.402227097894297003222
4.65000000000000035527137,0.718324346786963885413968,-0.235740158387242076942769,-0.655291493690364323931874,-0.0205770355071889510245597,0.00663437285523836572931344,-0.00561106952794367466741399,0.0165956749842316418630528,-0.00154441084416646152652208,0.00640127489519985715116235,0.999840504290007370258309,0.00844327145637713272208202,-0.011452648184172603551545,9.78491625744934445663148,-0.00160914751057530860250955,0.005704361913756645675877,0.00205395350417215396751636,-0.0594798551031310296366428,1.76313999466419124573235,1.34851032116820235273735,1116.68492092324163422745,1141.44393805740605785104,1142.82369762999633167055,1133.02218639667739807919,-144.446713139089638389123,112.495697914166740360997,-263.130364543172788671654,-18.9494368512900521750453,163.402975077535501213788
4.65249999999999985789145,0.925280524588572683697407,-0.407306110110943309088327,-0.514913904247193854324394,-0.0186128053177592282796393,0.00639083188903210360626295,-0.00674618310298677036768167,0.0166308330935117758275776,-0.00152528111052007689027454,0.00640141060750025556874698,0.999839951963514383947995,0.00988358790125330038955909,-0.0130587402217587911223973,9.78587218054688712243205,-0.00163927717211706644104274,0.00520097738598400503168273,0.00193255158514173759794208,-0.0594890460607153254146695,1.76315113618593199973361,1.34852203936178982601746,1116.38415819490569447225,1141.73027419505274338007,1141.94638164437537852791,1132.96672270490557821176,-127.26491701996836525268,122.0224787129635473093,-488.177469337880609145941,-13.0515662953715096961105,163.403696091798110501259
4.65500000000000024868996,1.14476884897995612178079,-0.629503005960483252856363,-0.300614429716209108356395,-0.015408085971483478915367,0.00568509664024371454138507,-0.00832989550518486651653483,0.0166706650650061891094644,-0.0015135712039982083133155,0.00640204304594492196872624,0.999839305127205868473084,0.0118221163497038012080154,-0.0143097928971737536896214,9.78706056086133280302874,-0.00165016773908385262249754,0.00469167241280338872394529,0.00181039483766317612842278,-0.0594977347487565602635051,1.76316317262557564760073,1.34853044790223286497621,1116.04859633814180597255,1142.05405045097086258465,1140.38281028330698063655,1132.95692856520054192515,-137.960063789117356236602,107.96732174117326508167,-651.82456137823942299292,17.3548724703781829248328,163.40452375365816806152
4.65749999999999975131004,1.29399260746286448586773,-0.813528754611920645878342,-0.0710547800567428861073793,-0.0122323103666643617781773,0.00431317250403219585447312,-0.0096090381824874282479243,0.0167085048990820959902148,-0.00150468312541895184869523,0.00640197372272088664757472,0.999838690182692890751071,0.0140954229603343500487611,-0.0153209858359428241492139,9.78847041865677525152023,-0.0016410495381551251734692,0.0041751445332054437642455,0.00169308735141635849016928,-0.0595059750843420706689635,1.76317663767112331463238,1.34853491777071088364437,1115.69435787596012232825,1142.27011080375859819469,1138.68725883748425076192,1133.05349706725746727898,-174.649706980611966855577,64.8647267148148927162765,-743.588893775238261696359,70.2463210850525143769119,163.405178053004874527687
4.66000000000000014210855,1.40077772761291541314677,-0.97072598675998666983844,0.216912541026234695351604,-0.00902166212135894346468845,0.00172787145754755579706019,-0.0106839363510325691120073,0.0167373102461050478340088,-0.00149539288462910511384729,0.00639990892193916232483231,0.999838238605527784841343,0.0165625297332175347442274,-0.0162163521355943446300429,9.79007903922091138326778,-0.00161178600087226822114295,0.00365031663527659979220918,0.00158643448295810261111649,-0.0595133919911821004933294,1.76319176406525168765427,1.34853506271839407304469,1115.1753478032387647545,1142.37837408454493015597,1136.66486581443086834042,1133.30816017062579703634,-270.936643661665073068434,11.8375778893987124718024,-937.329883009432592189114,147.90639869868263645003,163.405791496577649013489
4.66250000000000053290705,1.47394949614812231786232,-1.0999526476763179516638,0.614430548835911083394024,-0.00513282617508170960207714,-0.00240258888524300107114584,-0.0110496987720720661607654,0.016754015086854950888906,-0.00148646346052075405998194,0.0063934246411407958179951,0.999838016416438657429921,0.0191588963495659958535811,-0.0170443266648835356491531,9.79185129898618988875114,-0.00156277249762276811140271,0.00311674821921644048736133,0.00149582681586598611155059,-0.0595197197228166594018539,1.76320766331382228209179,1.34853121613060644712334,1114.33967465765158522117,1142.32929869320560101187,1134.0006094224363550893,1133.79302906075099599548,-331.645079390553064513369,-53.0157423317189042677455,-990.465278293207347815041,196.108637810406975177102,163.406476701091008862932
4.66500000000000003552714,1.4832729628795806586794,-1.14738649606805886982386,0.959456218909872760036706,-0.00156495768269037413382427,-0.00610907100519145641187579,-0.00974817397030539219138223,0.016759832894005923659142,-0.00148083683908836576115231,0.00638214725288726355406643,0.999838001673648779643599,0.0218629191814130596771548,-0.0177724598484356871574974,9.79374114812131146834417,-0.00149479751785833950977755,0.00257498337227592567072465,0.00142566308426247435880985,-0.0595255281954012935297094,1.76322226499025735968473,1.34852495624994106471206,1113.51712240628603467485,1142.11329537288634128345,1131.71253942296493733011,1134.28870335967781102227,-328.176982281691095977294,-123.698839360625157723916,-892.793334545577522476378,192.019874853444434847916,163.407003262467213744458
4.66750000000000042632564,1.4306178787242687100445,-1.13619861440589442480587,1.26823378887404381032411,0.00219730475815420583235449,-0.00938798327238295551855352,-0.0065980068671020108625469,0.0167596366978599725650056,-0.00148437181075888229367377,0.00636838146790539780250917,0.999838088944833391913392,0.0247122126899757266205171,-0.0183005153017761906797389,9.79569376549564907463719,-0.00140894954668211369250286,0.00202667913581137341255678,0.00137892900301873487685367,-0.0595308580793369943040538,1.76323345183053126206119,1.34851792268707115773907,1112.69878974624316469999,1141.71080449640248843934,1129.53664274970856240543,1134.75312843501819770609,-316.594902339245379607746,-213.591853692337281245273,-886.170712949634207689087,161.502075384900109611408,163.407482124140699397685
4.66999999999999992894573,1.28946423881062632865735,-1.07611341514701908117502,1.53742404830298440288061,0.00635230752468925706499814,-0.0124399795942392067671367,-0.00146603625569107420476,0.016758714735792799160885,-0.0015001698421819081776668,0.00635278958693392351714246,0.999838180357363381922653,0.0276942048053054681866492,-0.0185237496625455799748039,9.79764955730042963466531,-0.00130660522865081872752324,0.00147442803121150263316597,0.00135699312387718099698342,-0.0595356434841523146639375,1.76324012240172400822757,1.34851126411816313321879,1111.93414789458984159864,1141.04533610442467761459,1127.28168585821686065174,1135.09621373660229437519,-213.376120266916586842854,-265.26389771370867265432,-737.693859064909020162304,67.3885709461515745033466,163.40800082385965197318
4.67250000000000031974423,1.10565867220268532200578,-1.0057965460301210303129,1.643585844592305278411,0.00960926565023171794233114,-0.0141662736156703047279981,0.00350696222974871199551394,0.0167588831186341394308137,-0.0015290632278530226842439,0.00633576206680116008063131,0.999838241461409760191259,0.0307566400382402946322991,-0.0184098326178709914557885,9.79954805942461959489265,-0.00118937459203538164337344,0.000921375645109616544202458,0.00135961005074394141248217,-0.0595398987792763248472205,1.76324242042857215473362,1.34850537661206471007347,1111.63190914490860450314,1140.38448500783397321356,1125.84817345438409574854,1135.09007128974894840212,-24.6283969790061547655569,-273.293252202034977926814,-456.74805071276813350778,-77.7718237155130083237964,163.408386555541994766827
4.67499999999999982236432,0.856555292288027625424718,-0.929489562669174262943272,1.60460563332045236251133,0.0126583868780139937454399,-0.015543503577070842680552,0.00888580420332098566693624,0.0167606738650028022630245,-0.00156795895556973438958459,0.00631977083420599741042656,0.999838252033199093027349,0.0337765289160763121367737,-0.0179563137056342192465763,9.80133073448094371826755,-0.00105906712066399758161162,0.000370782596032276758404866,0.00138501173598132277207939,-0.0595436441281694678329117,1.76324124040541074798227,1.3485008444492576629159,1111.81100590969481345383,1139.6788698434145317151,1124.99794560465306858532,1134.70735461802473764692,199.475439661368625365867,-307.391093163830362300359,-232.928756373490131181825,-250.75517244904938252148,163.408724679457122874737
4.67750000000000021316282,0.497756350435859751257794,-0.830908033122181421958885,1.39234000927188183993621,0.0153469960859101556271966,-0.0176088131639302800102165,0.0149520731098905720890535,0.0167629886403605418698781,-0.00161051537089687145549999,0.00630626565145366371756275,0.999838230681685979917006,0.0365747748985868204041338,-0.0171971804171641151626204,9.80294400865111015264119,-0.000917673628215239303718143,-0.000174375961337020862719147,0.00143010075748191867357761,-0.0595469035653876238578519,1.76323682940339532265739,1.34849865619237307967637,1112.62928634321542631369,1138.84752954201485408703,1124.68352967251666996162,1133.83629542750372820592,390.534836881633168559347,-295.702325518329359965719,-9.08778109378564558085145,-370.700846988719320052041,163.409076339498881225154
4.67999999999999971578291,0.169726325850030446140693,-0.733714769323973947656725,1.10013063913975828178593,0.0164828788631016798227336,-0.0197995620218868774442544,0.0188164059255229963729672,0.0167632059654064455300748,-0.00165208259442647465223275,0.00629722716600060027775099,0.999838215900806570601844,0.0390138984921455517218547,-0.0162010913968395758866237,9.804341253015413926164,-0.000767334310158816865383991,-0.000711715313502826588988592,0.00149075353721583067460876,-0.0595499753893508204649621,1.76322948107578070242596,1.34849951786644073337129,1113.76368009410293780093,1138.20035821582291646337,1124.95250669918414132553,1132.85385038308118055284,516.893475893823165279173,-246.005222114495865071149,188.598091560838298619274,-415.293036709326543132192,163.409324981023473810637
4.68250000000000010658141,-0.155947656581967492028795,-0.609395682410471484224956,0.734447393887176058768773,0.0163389563272458952780664,-0.0219500118362371265945399,0.0209324106783450800128854,0.0167610066148115230411086,-0.00169023100091767776442797,0.00629299034752068674886116,0.999838214674373393364704,0.0410099012106548144185325,-0.0149954463977472890467979,9.80548380778001238411434,-0.000610337478518609578143073,-0.00123966943560665783345687,0.0015622233425328653066283,-0.0595525120783776396038434,1.76322105281473362481393,1.34850310588888810947594,1115.21375372268448700197,1137.61750343144240105175,1125.62652013032084141742,1131.75983024395713982813,598.682014012499280397606,-222.755781439183664360826,308.817135879141403620451,-431.502622716403323011036,163.409528281035363761475
4.68500000000000049737992,-0.453952734610168606721459,-0.4592307808847609362779,0.348073026243168603954814,0.0150408858761237832629698,-0.0236141068121304420479589,0.021785665355985046193199,0.0167557776766589436312493,-0.00172396872542428161029227,0.00629017971516051838803962,0.999838260005981305234002,0.0425173679035661389313816,-0.0136159699779738463387702,9.80634315469813166998847,-0.000449103940058302698260656,-0.0017575711941825618300772,0.00163955567417651605112427,-0.0595543835232461224449274,1.76321310397775476985771,1.34850846801894830306878,1116.75709016416590202425,1137.08657930862682405859,1126.49659237858008964395,1130.69633726949882657209,593.492537514079117499932,-203.06598943912354116037,362.749512145918288297253,-394.076723082488797444967,163.409694512367281049592
4.6875,-0.693105530147973714072407,-0.280801189978637677491236,-0.0183968563865337872420547,0.0126149296954429883388382,-0.024500687478593900781032,0.0215349707775954191113499,0.0167447426615744930644691,-0.00175275125126825694413246,0.0062871016070902207770188,0.999838410360425311473875,0.04350973665829788172843,-0.0121428292359632983288265,9.80690237262179564936559,-0.000286163869988265921317366,-0.0022654948205269431066311,0.00171790049424474849590339,-0.0595553921321999094051769,1.76320632144989253298206,1.34851524264673860997732,1118.18121641025481949328,1136.60217348424680494645,1127.44026769105039420538,1129.78944662854473790503,545.033492061122842642362,-210.434250591520083162322,400.381713377109349494276,-345.588891127234205669083,163.409816647828591840153
4.6900000000000003907985,-0.895571917066130485096664,-0.0411531408828578471048587,-0.388039464137156731027289,0.00910274936857281315172319,-0.0247953634460742720901916,0.020265798629294291821612,0.0167261717141604822345347,-0.00177627357333499523613096,0.00628446069757582562176346,0.999838691328001738511944,0.0439757295566481631876599,-0.0106367766991868062387283,9.80715557461935283356524,-0.000124108585975970977643285,-0.00276393966100733825402846,0.00179274563306122528862085,-0.0595552256027637449964374,1.76319999716824660218606,1.34852339993415859531467,1119.48225762447145825718,1136.03440805566924609593,1128.49850094546559375885,1128.96839281386269249197,382.899059870450400921982,-214.04600356591348031543,362.330493487760122661712,-255.343408756658391212113,163.409912962472077424536
4.69249999999999989341859,-0.996291879377414701934867,0.175471076478380894059228,-0.611459956977246865683639,0.006212478588519636246712,-0.0245466426567385737067539,0.0184708323625118950306323,0.0167022052561995454356136,-0.00179649745400142866330606,0.00628174193395406380013846,0.999839066756082917031279,0.0439596539582675638335729,-0.0090827440558227112710199,9.80710644910976547805603,3.45222335238704129125806e-05,-0.00325351777117402572031546,0.00186012955202872120805124,-0.0595540646169105819529577,1.76319277615748504217663,1.34853300943546416945651,1120.09571170960703057062,1135.53194346641726042435,1129.25192015848915616516,1128.51272958476147323381,140.814905090977219970227,-216.190912038250701243669,270.435257143395858747681,-145.200400281331354790382,163.409951848580021760426
4.69500000000000028421709,-1.04326613525072575683339,0.40669621607641176508352,-0.725762989766914556888366,0.00369548298990173300013207,-0.0238325571804902831829498,0.0159602436198836503122855,0.0166768892731838890008955,-0.00181411375532837754534499,0.00628261634753974566175438,0.999839444343549765825685,0.0434910622741605662477937,-0.00742783959315115871469004,9.80676832686128285843097,0.00018729074399666446491472,-0.00373479688780987756011043,0.00191683192357890034088208,-0.0595523933298338081776535,1.7631836374371627762514,1.34854370666208644991002,1120.18633214992632929352,1134.9534534954780156113,1129.85067723118254434667,1128.24239081245605120785,-55.164717192657271027656,-275.619990291403553328564,234.296089200420738052344,-96.1619074555094357492635,163.40994833709885369899
4.69749999999999978683718,-1.06453134303299989937841,0.698804879325811478807395,-0.728205110200275229637157,0.0012055948755118402627301,-0.0224560253795303456370025,0.0124610513965005519076978,0.0166529267640007777595557,-0.00182925062249737735951827,0.0062910556219290666643551,0.999839753697928546039009,0.0425979936935933778396901,-0.00564416729274896944446027,9.80616354234235920728224,0.00033193028583210183127955,-0.00420832398956289596009261,0.00196052132667830052159541,-0.0595503678018290127926804,1.76317245477929929187155,1.34855451753048649621292,1119.81988812364375007746,1134.15384351496027193207,1130.42340060449123484432,1128.03192004748393628688,-176.547427146719314805523,-305.365645670287619850569,194.66068200431851664689,-71.3632128840360309141033,163.409895690294149517285
4.70000000000000017763568,-1.07011546643553323576725,0.951626218489505348863133,-0.626206247913013824835105,-0.000600544824190563943620835,-0.0208335384961592963437571,0.00975218667597639414512667,0.0166318628098244131185979,-0.00184399123429667788180708,0.00630582084495508177202083,0.999839972381980079951802,0.0413559315447263736720274,-0.0037244940807075466171483,9.80532134263463817092088,0.000466422336207715504396987,-0.00467471883492203647142427,0.00198982406181445487663995,-0.0595475843597224746561736,1.76315984454771146339169,1.3485646812781690861982,1119.30359501419275147782,1133.42662526712661019701,1130.82398064120411618205,1127.88557474803587865608,-196.787093372544973135518,-287.760980522813724746811,154.941122993526391837804,-57.5136186488192393539975,163.409811845830517995637
4.70249999999999968025577,-1.07357412523958295480497,1.20684346612709680890418,-0.444661475258403049437561,-0.00251539871854216008639771,-0.0186240295375784542519781,0.00806225452620456042862607,0.0166140929447916897709892,-0.00186014743325148734949537,0.00632748788062153545708188,0.999840087008292965897738,0.0398427073003805032325175,-0.00168231851198094584098897,9.80427638553077329675034,0.000588970765493977525817382,-0.00513475490793339258560612,0.00200427847689155615509837,-0.059543926082955785095141,1.76314638541473067689935,1.34857398569734998616809,1118.83595265678104624385,1132.71503861234623400378,1131.19810621945885031892,1127.74435195423984623631,-140.177642684105450143761,-285.547737637040597746818,165.250609165017408486165,-46.2605084215293445026873,163.409686932134320613841
4.70500000000000007105427,-1.07299116601269872717239,1.49997040561889938281581,-0.183442877354350525331839,-0.00528082225557096902185394,-0.0151597780877100896806953,0.00734859218390723767377892,0.0166007859404382167312075,-0.00187672848266896038875451,0.00635977409187264523804384,0.999840057644787560953148,0.0380879668885003019873636,0.00048618844097700342210544,9.80306664648514392013112,0.000698038632679104853115404,-0.00558935279558882020661814,0.0020042378904831484494331,-0.0595391577787707307334308,1.76313301637998631754556,1.34858213401952564680641,1118.6027068007722391485,1131.99888657894143761951,1131.65023368702918560302,1127.65427220592823687184,-7.65728119917974581198905,-224.485167139038281902685,165.663462791482317015834,2.74852704392244762132691,163.409489990067385178918
4.70750000000000046185278,-1.06061607589816375707414,1.71659304212180852111658,0.0331938378896735261647244,-0.00792170852765056339450656,-0.0115684623604377645467167,0.00745752843612985244492464,0.0165932684221579522521051,-0.00189229217702559238123428,0.00640410835913633215421559,0.999839858005610593316703,0.0361182745928190496176313,0.00279037824552846869252676,9.80173134081001506956454,0.00079250813641612105706763,-0.00603945944507827681135836,0.00199070277434106306796435,-0.0595336808885914905986603,1.76312065378854909702966,1.34858882452810591168202,1118.79766625078514152847,1131.59261277665086709021,1132.02642353341639136488,1127.75809458945946062158,160.182122908194060073583,-113.399635959560924902689,144.756440104177642069772,109.089975417057360118633,163.409286948797301874947
4.70999999999999996447286,-1.02509320228332301283558,1.87998830652300474852723,0.208576278974142437228068,-0.0104915895720992941031469,-0.00718206271868523666440653,0.00818596547048157374693034,0.0165933298465485087880289,-0.00190791451170341198537161,0.00645466015216364548401362,0.999839494028237574241302,0.0340141586489283026528696,0.00525095347082746299882672,9.80030872338119785069921,0.000871852774321920493370841,-0.00648580501540519695213849,0.00196513099562725581520573,-0.0595283385527976549589368,1.76310835168325530375455,1.34859514578399086737193,1119.40361741531319239584,1131.43188839914364507422,1132.37401588755005832354,1128.19972208301351201953,292.532043146372302544478,-24.2170245813673012946765,130.174583964529176682845,248.511370887177520216937,163.40904380187416222725
4.71250000000000035527137,-0.963424391099664045867712,1.97983556157980533640739,0.32425582028630789421797,-0.0128725669995189574007499,-0.00204459356553829711342085,0.00963729180201249556458887,0.0165969275831697911371965,-0.00192200647103700451509556,0.0065044391186705992694006,0.999839080239826816232096,0.0318059163987287757402456,0.00777623070187016818266557,9.79883715837354074551513,0.000936068143457204960601603,-0.00692870983398262852565042,0.00192922888789390733176032,-0.0595238845325885140846722,1.7630946972393002347701,1.34860136729668078636735,1120.26032646651697177731,1131.47152765374403315946,1132.67729645323902332166,1129.00065144389532179048,364.994308845151465447998,55.4506916445928226266915,111.211337382021710595836,408.524816583357790023001,163.408767586478575140063
4.71499999999999985789145,-0.862558370351604430936732,1.98445022217222089011557,0.346823897282086623938824,-0.0151106113686509339194552,0.00377250195244526777271776,0.0119147612099135442875752,0.0165984094346001802289248,-0.00193386460964956280288163,0.00654817003296888008878618,0.999838746736633532385952,0.0295422380077043078561161,0.0102438650128880426315447,9.79735233056570464782453,0.000985545979641056857714632,-0.0073679992585038624891558,0.00188493423071848771946368,-0.0595203565667294515195707,1.76307886741312214162747,1.34860667092162156421864,1121.22858895953891078534,1131.70914185736660328985,1132.93007257446015501046,1130.24234616593025748443,394.267341059921136547928,134.233644175631667394555,111.321778238609667255332,626.093207256521623094159,163.408451632212148751933
4.71750000000000024868996,-0.687026371237698718630327,1.87241684453524448450423,0.261972898314193791691196,-0.017410308702744958786468,0.0106468635662126318019993,0.0144946847155642440097001,0.0165931126639887668861029,-0.00194434599992992346827181,0.00658082875850220152397219,0.999838603639028766778551,0.0273024736906375062317487,0.0125514627833185621330614,9.79588554831960678370706,0.00102093742227045035028676,-0.00780308398157513773141236,0.00183437823591317637067499,-0.0595172183181158706566372,1.76306039448488727217068,1.34861031628334382403978,1122.23166317181653539592,1132.14269587462217714346,1133.23390534443205979187,1132.13111748017786339915,301.611970868322771366365,172.598659035842530329319,127.46351627329475775241,730.316210186144530780439,163.408026352653223511879
4.71999999999999975131004,-0.489564504548179735277103,1.69117087277785471677305,0.115125566508325241632527,-0.0189131240055737115390855,0.0155049043446833876430668,0.0156252740613193052965357,0.016579711694067980620737,-0.00194922174654366380658344,0.00660122154939208911211823,0.999838689093211718805776,0.0250653845952639592331579,0.0146628510642464182645028,9.79446320272172599175065,0.00104294565899591728033724,-0.00823315782628506083462572,0.00177977920272088000960831,-0.0595142150530645064332447,1.76303939047763802427937,1.34861206373452757745213,1122.73664881388049252564,1132.57213515254579760949,1133.56739015582661522785,1133.89392721686090226285,96.8583378219157253852245,177.571035051873110433007,172.726292839983273097459,704.106811454054422938498,163.40763299667403884996
4.72250000000000014210855,-0.233266597204292353007204,1.44501600307427890967915,-0.0731039589736726946878065,-0.0201951402018810399763282,0.0190435175255205327293773,0.0152824791292696833544529,0.0165639311494052664242016,-0.00194514337798440471553885,0.00661376565661252625166755,0.999838883227489594318627,0.0228254380682764018706266,0.0166797494603121432277248,9.79310457251629173924812,0.00105224339346147283645594,-0.00865741381350372540826044,0.0017232765443059843302881,-0.0595104870345698408473645,1.76301700094344493408016,1.34861213165461157892366,1122.71595486092610371998,1133.03055104988152379519,1134.09753680863195768325,1135.65165153744806048053,-152.614397722321683659175,207.811979035808946036923,298.528939816513855021185,727.231542314962098316755,163.407198143865798556362
4.72500000000000053290705,0.143297703259829156685612,1.10939487081940058033069,-0.300326009074248334584922,-0.0214640677675442745342416,0.0220108216101412949849969,0.0134854728573809423686214,0.0165514410067569318896208,-0.00192866812538365520017514,0.00662164754841929568962566,0.999839076108740454351675,0.0205718164599997463404257,0.0187031166502712176136214,9.79182414611711848806408,0.00104959785400503833110997,-0.00907520101617164190455078,0.00166660485892986291386886,-0.0595060975188821186798727,1.76299362432765982511285,1.34861188209197857545973,1121.97357682526876487827,1133.61119504772500476975,1135.06003485490941784519,1137.53008492843628118862,-391.921189113244679447234,223.947749884660197494668,409.495408676602551167889,622.475313859526636406372,163.406626547195003240631
4.72750000000000003552714,0.50553187239355645843375,0.816242014156774442490416,-0.467052198608197743912029,-0.0218231959637260053419539,0.0237042446576862415874576,0.0115869482875503252566896,0.0165465127903993251823334,-0.0019008102385301816738411,0.00662476106652512292810586,0.999839194176467715990952,0.0183762475942008673968076,0.0208063852926861636571942,9.79063198406865176082192,0.00103601013696721444903859,-0.00948606732280527810419191,0.0016109392960542367155552,-0.0595016902437405306725005,1.76296903838937835118372,1.34861232241202610993014,1120.75634891535992210265,1134.15028979930480090843,1136.14501385201492666965,1138.76402810674562715576,-591.542944501737906648486,239.910367226962648601329,474.259330166215590907086,399.703617025951984942367,163.406107052161246429023
4.73000000000000042632564,0.890285900439936606076685,0.522794324589874737085893,-0.599238674163459550392474,-0.0207507092059414852136534,0.0248150422035013189236974,0.0102484318005699945319797,0.0165487346929703536824174,-0.00186278404709661255835018,0.00662520289553495452666843,0.999839227056942503324422,0.0163080530317317312638536,0.0229715053158030535485068,9.78953585702370432386488,0.00101265479800251734926464,-0.00988978668686730892634085,0.00155687342656435530330317,-0.0594974695630281560920771,1.76294375527607516396245,1.34861348932103308762009,1119.01586210276013844123,1134.81074688385979243321,1137.43133150574044520909,1139.52860301356599848077,-842.136542184716518022469,335.228924918881489247724,564.278061965217830220354,209.58762404930430989225,163.405540300029485933919
4.73249999999999992894573,1.32798097908223478036405,0.1747214158515570381347,-0.716075315432856962516439,-0.0174267037251699778710456,0.0256450905858055869246392,0.00911837974408476539811552,0.0165551448014489947790917,-0.00181582651704044039514541,0.00662473535850457637130795,0.999839210133620648335295,0.0144300083232583725711962,0.0251311933833857914510901,9.78854130145898615467104,0.000980925358980202881375998,-0.0102863248114838309876795,0.00150456040699491894185869,-0.0594931600435896906775568,1.76291792525254975565474,1.34861475245512751897081,1116.54566620443642932514,1135.82643442389917254332,1138.96640416184095556673,1139.81196622699212639418,-927.402686053184652337222,418.00125658283815255345,514.244298975710989907384,-8.24208085769004661358395,163.404802182129088805596
4.73500000000000031974423,1.63270799688724532749973,-0.112930756431717335686038,-0.773043239188385578053442,-0.0131714186294036948027264,0.0260158598557948990415145,0.00771602205680269048748698,0.0165626782868977771856489,-0.00176453220816595048557607,0.00662369444617991621343522,0.999839184081710130591603,0.0128630381731062518047004,0.0272167593764646442711097,9.78765123897564315313957,0.000942476396908208048815159,-0.0106757773209773428046976,0.00145382662138079433479521,-0.0594883338910230374807497,1.76289120769009954869944,1.34861527082204424310419,1114.37884867249431408709,1136.9007531667739385739,1140.00255300061894558894,1139.487392609277549127,-836.61009030212846937502,478.151138239910494576179,306.243129247975218731881,-245.214263101075403028517,163.404136162815120769665
4.73749999999999982236432,1.83491940929270014315478,-0.398195685698164658639087,-0.772868092160276853874734,-0.00790463700689008307020966,0.0258958095864822053500109,0.0054456821318618064964312,0.0165706103382110316035725,-0.00171145338448150255775126,0.00662343127911893102960361,0.999839148319543014054034,0.011680000981444879637472,0.0292068071176825594381654,9.78686627052557334138783,0.000899217735192643316012584,-0.0110583310333804071823316,0.00140422357639826485449508,-0.059482756028943560566713,1.76286339504198896754872,1.34861530851282118703693,1112.36261575292587622243,1138.21719011509867414134,1140.49761980808079897542,1138.58589491148677552701,-746.339575852532561839325,559.790277282684769488696,74.178396991148233041713,-447.385437607918447611155,163.403414962463727988506
4.74000000000000021316282,1.93347163332731408758036,-0.676818531359626329724222,-0.713717006666659270486264,-0.00228230171092931762022449,0.0250838382405625115456616,0.00294524027517924962341067,0.0165820330516544545140789,-0.00165923655892166212189043,0.00662495026446255352858827,0.999839040499537090589399,0.0109470487527959584039827,0.0311562447052031177285869,9.78618444452075131323454,0.000853438456771583430632289,-0.0114342665366702345153271,0.00135502274494403917790009,-0.0594776519442339543508602,1.76283398474384034315676,1.34861608586000691900608,1110.64715079323173085868,1139.69970455318730273575,1140.37344498557467886712,1137.25046542123800463742,-582.6724936255355942194,615.428974599639673215279,-218.774086749731509371486,-615.90301274110458962241,163.402647166615366813858
4.74249999999999971578291,1.90140206223208951819004,-0.934667113705904162301863,-0.5778105942244975423705,0.00319446812608172644315507,0.0231775680030738631676179,0.000733982227681435439418933,0.0165953626840865432756633,-0.00160700330144001712201485,0.0066305716972227595959466,0.999838872741951267819616,0.0106512093683420600020995,0.0330307443192769945028431,9.78560479085873602400625,0.000807777888782126320642296,-0.0118040443800383199057791,0.00130509244705137843894915,-0.0594742136826301934227068,1.76280280143709910944949,1.34861858924535926718136,1109.44925328479826021066,1141.29433498809680713748,1139.40374937433216473437,1135.50637984778131794883,-386.995181036317319467344,693.85826649205796456954,-614.989982074998238203989,-817.88930639101556607784,163.401823309290904262525
4.74500000000000010658141,1.72408407400781760188124,-1.19939599106195027289345,-0.332243502366356469046593,0.0090182002919177231547998,0.0196407124320236818604268,-0.00126208158273243865876712,0.0166095658369102734674971,-0.00155479731713692925429426,0.00664093980801682640807693,0.999838658300814531187939,0.010787796448108726010684,0.0348089353984467331226682,9.78512542831577292190559,0.000765168695543126339310425,-0.0121683816079939111087782,0.00125320866610426919461607,-0.0594724939314851194782641,1.76277022591561793873893,1.34862321556679498613107,1108.71217488805018547282,1143.16899588564751866215,1137.29849507519975304604,1133.16101888928301377746,-153.331890187677032599822,650.167210460802607485675,-901.842349847033801779617,-863.954788091679347417085,163.400771484932533894607
4.74750000000000049737992,1.47945936195030580684318,-1.37019679819113915364426,-0.0721756852450015501387881,0.0128434839719385029271903,0.0158601737188545609258394,-0.00222042116167976656335159,0.0166270098339827109013012,-0.00150668098409211686540543,0.00665355953217851552733419,0.999838366568350789265196,0.011421297345203716699924,0.0365381283318440830409912,9.78474230345925377605454,0.000728655172563921630160544,-0.0125283198308816703242519,0.00119843083435198323113968,-0.0594722566842761368732795,1.7627371942491736334091,1.3486292674200548447061,1108.68259383385975525016,1144.54517104040132835507,1134.89453762509629086708,1131.18660590732224591193,94.5659712161179584199999,473.44634957604387182073,-1045.05487667718125521787,-749.39645747314682466822,163.399844529996840947206
4.75,1.16076595739111554372869,-1.48376508075444535350584,0.221217403338329343664981,0.0156111271939508751416259,0.0118059075286285307393452,-0.00221512945156192471440892,0.0166453043393895508406111,-0.00146495962846994779403553,0.00666604728272687189344348,0.999838047508522342887716,0.0125715832917562969628378,0.0381754237946696217687048,9.78445227843650222609995,0.000701076144506903643251194,-0.0128852400447517639880957,0.0011402007142449941626966,-0.0594732226454243589897075,1.76270417828238290525178,1.34863587130983386686012,1109.18500474413076517521,1145.53622763352768743061,1132.07322069181395818305,1129.41403660191735980334,313.697738800290039762331,310.77734006763176921595,-1264.71918107516080453934,-691.666659294438659344451,163.398869130847486985658
4.7525000000000003907985,0.719418957831319927365143,-1.56171045717098566640857,0.577001539946980779305363,0.0179517306001197411713388,0.00739251436520531584467575,-0.00112109012951938234910199,0.0166604125016194329345076,-0.00143027685042592484984669,0.00667637923961486752510996,0.99983777993859634936058,0.0142167582117891516668706,0.0396486410560853708151541,9.78425173092644229200232,0.000684869650270450718194948,-0.0132407467253193786294041,0.00107858257975719301277606,-0.0594746276174461449559594,1.76267151817853795492397,1.3486421901234817433135,1110.25108252786117191135,1146.09905774073945394775,1128.57094171972062213172,1127.72827261085012651165,442.765368222726806379796,87.9162026269587499882618,-1248.14477866855600041163,-524.571307503594880472519,163.39764873751224172338
4.75499999999999989341859,0.317412008042389726103494,-1.58845186652336245458628,0.849545872522545875149547,0.0191218679112426549748793,0.00403732049095963541757159,0.000601050535450796657305217,0.0166671098116497190533281,-0.0014038175621113953197433,0.00668193648540395951362925,0.999837666800527102850538,0.0163371212507222793308692,0.040864926138041990366645,9.78413581309911783989719,0.000681987282919292270126632,-0.0135965086419229663761143,0.0010143133046070637245939,-0.0594759610708922650812447,1.76263846241531707548233,1.34864766853880846397828,1111.39883158524435202708,1145.97580864666247180139,1125.83249679847131119459,1126.79118006439944110753,485.073433200760860017908,-168.895172033811803657954,-996.349931169400747421605,-267.870780190565938028158,163.39659538207877176319
4.75750000000000028421709,-0.105832788485033774117383,-1.58475941842538503578908,1.06517459443672679597626,0.0195782471085235616758968,0.000916132832152854385647511,0.00317123327621909520401822,0.0166633927469207292204612,-0.00138737952481295741431755,0.00668075048047708439091785,0.999837752538287438675013,0.0189181867949227214276142,0.0417965930475317770653731,9.78409647440274277130356,0.000693839918354728114879837,-0.0139541137317275177470721,0.000948852177504191929280353,-0.059476347138314185347685,1.76260562674530274485107,1.3486511262755191964402,1112.67644969386492448393,1145.25458188057041297725,1123.5891920638737246918,1126.38891870989732524322,568.326272874004075674748,-425.679747228568885475397,-812.883179740237210353371,-58.4905484314743873142106,163.395510598889927678101
4.75999999999999978683718,-0.620245167300058408699215,-1.544660927300048225419,1.22433853419249860650098,0.019325388667406559473072,-0.00264852893698066995525897,0.00713671448332446958784381,0.016646288971478170881646,-0.00138279569152914105605034,0.00667469804045715039281239,0.999838072398331223489265,0.0219400946296923818334967,0.0423983673888582990318952,9.78412377922202658453443,0.000721284612133581658210968,-0.0143149573484614434093487,0.00088407110898441236893075,-0.0594751160349448401709616,1.76257291264801274621732,1.34865178008569297496422,1114.24046294961431158299,1143.84740991051967284875,1121.76808089977021154482,1126.4987273222420753882,568.816559490290615030972,-571.034703619773949867522,-489.010389335873185245873,126.67533665712923607316,163.394179364276055821392
4.76250000000000017763568,-1.03479060168628689275749,-1.47099601932024626194107,1.2551264179581633761984,0.0180500248749640018752771,-0.00601725511478558208050549,0.010965958486650224934511,0.0166143094401546391469804,-0.00139144345689369000260149,0.00666516148010198525297731,0.999838641804895122966457,0.0253693913485037517152598,0.0426548981334871346593474,9.78420509117542813726232,0.000764909277983291148450551,-0.0146801009481385118932151,0.000821986901321446541968108,-0.0594732094807903788336034,1.76253934966494396618941,1.34864971015778012386477,1115.52053249131631673663,1142.39940836247160405037,1121.1441401171944107773,1127.02229539318295792327,503.886354871212290618132,-586.574843760139401638298,-37.6129638471874230276626,277.980788160090469318675,163.39305005981844942653
4.76499999999999968025577,-1.40042034086332844999845,-1.33459492478543539917268,1.16962972891798533403573,0.0151075670005133919776563,-0.0101208741702150349650591,0.0148300091109087334856342,0.0165727849731890294893155,-0.00141340918966219113682425,0.00665531958763416510438393,0.999839352302898554114563,0.0291446937652620544079163,0.0426841657499076598814014,9.78432355685960608582263,0.000825108736706572009830807,-0.0150501997407250353439023,0.00076454048403278625917201,-0.0594717514971083299757382,1.76250494376401323215475,1.34864547975384763134343,1116.75989472397031931905,1140.91453569171903836832,1121.58001608053427844425,1127.88863126304249817622,489.891406563503096549539,-563.274334592563945989241,357.200943351161527061777,384.934811692081893852446,163.391905175344589906672
4.76750000000000007105427,-1.69534398791565887876231,-1.13315560463955744552322,0.991263662150921320836972,0.010757464364419511496096,-0.0142191400867634955978991,0.018180806902502965466395,0.0165287769696071326630538,-0.00144631122552111961165888,0.00664937470233130118596465,0.999840062668359341735425,0.0331542208363775903201542,0.0426369885717375607381285,9.78446077472207953462657,0.000902112211568454431739883,-0.015425503405037458565241,0.000713126018206454805915817,-0.0594707277550138996291551,1.7624697290440107799725,1.34864006082336729264171,1117.96998952413377992343,1139.58303668950884457445,1122.93014483395018032752,1128.94696945164332646527,476.28829643264737114805,-458.997333294538407244545,748.563029931639334790816,445.828563195094261573104,163.39075088925162049236
4.77000000000000046185278,-1.87370147625608352015547,-0.851664380326711656366001,0.718133179124548659544303,0.00535800916852260857708989,-0.0174584223064350105292242,0.020633003934147839397717,0.0164866189028445887798657,-0.0014834724306699829683015,0.00664515465637537626475417,0.999840722932106129583474,0.0372004406824779781937096,0.0426096290552490652991935,9.78459960637658632265357,0.000996136943056183171360529,-0.0158058329724536685001457,0.000668232745180860968070569,-0.0594698107902544986780313,1.76243437430260319054298,1.3486344208420448786967,1119.14133620613392849918,1138.61954902524598765012,1125.32283123019306003698,1130.11777407901831793424,496.503053263778951986751,-309.126682714311073141289,1247.01212616003363109485,510.024592971296385712776,163.389589156953888959833
4.77249999999999996447286,-1.93066147276213539996093,-0.438730027659296639708231,0.314111907432712889054471,-0.00140212151530196330560807,-0.0199740047313823436414548,0.0224649994796876431579769,0.0164492499952933572682223,-0.0015196141191825898730805,0.00664314379927966394689953,0.999841287529516509202665,0.0411133684376587260622671,0.042667259637301196972814,9.78472401845630912475826,0.00110705682277691098112926,-0.0161905191638107674723113,0.000629381484243903043321322,-0.0594685943381405082708291,1.762399138180940294518,1.34862941471378161573114,1120.45250479045262181899,1138.03740327593732217792,1129.16520546475021546939,1131.49709241649975410837,449.167821567389637493761,-111.904724399212341268139,1514.37745006458999341703,479.908526944074083075975,163.388191036980970238801
4.77500000000000035527137,-1.84631065429501894925579,-0.0548562407580641467341742,-0.0567916953245852576537267,-0.00692336059622475612912451,-0.020938257540850463422899,0.0230722175326960356189776,0.0164186351529388777081842,-0.00155197444477557728106931,0.00664433401294909579265502,0.999841721925329274256455,0.0447737923305692453457283,0.0428511617989557891394981,9.78481960347200541150414,0.00123444605756223269553418,-0.0165782610865461699223289,0.000595173220195281769268059,-0.0594663594150586227726762,1.76236388283074063565437,1.34862543362246811717853,1121.38717531397082893818,1138.0600254032499378809,1132.89471848051584856876,1132.51731671373863719054,313.805257477731515791675,102.486619494677512420822,1514.47230426991654894664,359.820882580341674383817,163.387025549986901751254
4.77749999999999985789145,-1.64133384358543721326384,0.335734240011458517916054,-0.423786808153470917481798,-0.0118817685230456823036738,-0.0207806589954814442677833,0.0227044286428285911616509,0.0163949170961499406107276,-0.00157769524548646822813269,0.00664689260596490992527574,0.999842041948019177866058,0.0480632453283886262873636,0.0431620057739521001405336,9.78487492501277600354115,0.00137773668737622176187763,-0.0169669809556218416368711,0.000563410861182801368449158,-0.0594634956003173842375986,1.76232702382193884282913,1.34862362605699370732282,1122.02153107784124586033,1138.54983637341069879767,1136.73756698609963677882,1133.29619682940142411098,175.638355276763945767016,290.869409104567978374689,1606.30143751544687802379,271.676211043910711850913,163.385862625409288284573
4.78000000000000024868996,-1.29372666779145251148009,0.766326665069316792511245,-0.808769693293637459419188,-0.0165262483010201882693835,-0.0192374400392234037870942,0.0208451308520787512157391,0.0163767681876199645840675,-0.00159622465666396369347868,0.00665187047228067273446639,0.999842266031172322016118,0.0509126772797189597330458,0.0435651548480852357503323,9.7848814694239614198068,0.00153608766717798278164664,-0.0173538327075725071213519,0.000531379553971023143102426,-0.0594610216934766885876762,1.76228627461861830916234,1.34862545201900974056741,1122.26536709035462990869,1139.51437244877274679311,1140.92622566809291129175,1133.87569776895816175966,-15.7367851265465734655891,385.954599646637745991029,1389.87269121196959531517,150.201250944886425031655,163.384472553518207860179
4.78249999999999975131004,-0.95516103280239017525588,1.05811380042863834027855,-1.04504708015078096039474,-0.0190731983441926634947894,-0.0167179862223470164506178,0.0179400771961120628072983,0.0163642353449068717052839,-0.00160887383528502065158095,0.00665973572283457253967454,0.999842391156207987990001,0.0532953480574455268348188,0.0440465741441598557237569,9.78483270445557629102495,0.0017084593987321860034112,-0.0177354460830553214978345,0.00049640259223229722847226,-0.0594589768969163989797977,1.76224071991686637161934,1.34863078541717129610333,1121.94284715220851467166,1140.47960937164384631615,1143.6869304421593369625,1134.04720308412584017788,-244.389522781608064860848,383.37036805861225730041,883.778847720005387600395,8.50391385320126502733729,163.383319836513493328312
4.78500000000000014210855,-0.609993665735194645627359,1.24115150980207356035123,-1.15440049517118703548135,-0.020386879219878677876876,-0.0129048510751880087660259,0.01392139735566978037129,0.016353451983474383280015,-0.0016135440522361060248363,0.00666977244120647936448387,0.999842489720682570109034,0.0551242146915146280505837,0.0445104018833132053512003,9.78472659412412504309486,0.00189352242064967798106101,-0.0181084018049571526809416,0.000456223122166239973204749,-0.0594568860629489659430646,1.76219095868814856764573,1.34863795968096455979435,1121.04341947644661559025,1141.43122428906576715235,1145.34511990669284386968,1133.91821733822416717885,-507.779215538414746333729,382.981267266799648041342,437.144127398573687059979,-116.386382781938664265908,163.382173598765490396545
4.78750000000000053290705,-0.232135302237854640461379,1.30472184551880543423863,-1.11548074472153091463156,-0.0209016156775186576211034,-0.00739327817579182085955258,0.00875477072842187342693876,0.0163464829977539444216816,-0.00161220050344228985755857,0.00668114709951059433656884,0.999842530304133281227053,0.056400801904384609275489,0.044971314950057045267684,9.78456013586043127361336,0.00208952913243781127766718,-0.018469739042128736905557,0.000409757333574663727693288,-0.0594542266239488845225303,1.76213815581753530103981,1.34864511548833032605899,1119.40395107451604417292,1142.39451570797814383695,1145.87265107915254702675,1133.46527117021605590708,-659.950265681041400966933,309.530404325421159228426,-43.6302412223094719934124,-210.568732061715252257272,163.380805309046564843811
4.79000000000000003552714,0.027998049480449222620182,1.22370820448103456712374,-0.944893653533468991234656,-0.0206764110771621018036726,-0.00285465124744228469430563,0.00483359685457712771189387,0.0163466428258260895733933,-0.00160755833463692389059818,0.00669369146268373408498187,0.99984245616987921234653,0.0571509369561676028315134,0.0454645135187213000893536,9.78433074172794725598123,0.00229424663704915279827112,-0.0188173794682061010230534,0.000357129305772590653535875,-0.059450844535994147588287,1.76208300560706265791566,1.34865101039741808186534,1117.74366814804147907125,1142.97887631069283997931,1145.12696870058130116377,1132.86537367791561337071,-669.360082773724343496724,182.540340906647799101847,-498.066921141081991208921,-286.174489398178309329523,163.37967020673843876466
4.79250000000000042632564,0.211015167394497743513782,1.02445175341417482606232,-0.660361251625945944176976,-0.0199391646861019483649713,0.00088403485986549327439038,0.00198184290425332905113964,0.0163498805885457926256876,-0.00160359097539931969716998,0.00670166648282641448652885,0.999842364616083445483241,0.0574342823988090861453415,0.0458796505382463581934616,9.78403843696199437829364,0.00250520490371135447216222,-0.0191503891886615068562705,0.000299285448235246112017732,-0.0594466270730664020360834,1.76202652909301327177616,1.34865492506688244844781,1116.05715066064749407815,1143.30721741251136336359,1143.3823164734471902193,1132.03439872322519477166,-635.307435479094124275434,89.3063192817881770224631,-808.310787811950831383001,-375.08337358118188831213,163.378538660812154148516
4.79499999999999992894573,0.320707014377741461697013,0.759125794546356869041404,-0.31866359691022044797748,-0.0188396631156727313582966,0.00368775601318414121207456,0.000268053637540627742643501,0.0163483537779343657270203,-0.00160210423188810987052411,0.00670141865133360142142704,0.999842404736768330941743,0.0572789396939489270366153,0.0460321334974809481810354,9.78368440089498037082194,0.00271945449475702186528658,-0.0194691533771609096015176,0.000237912232666974508138447,-0.0594412976910762141935507,1.76197013713325523198705,1.3486563641387503409419,1114.56713097064607609354,1143.42540790710177134315,1141.08541476152163340885,1130.98995681000974400376,-505.412038243240999690897,-0.463920845550101934584575,-976.20860919680387723929,-476.423976158194989238837,163.377408200434501850395
4.79750000000000031974423,0.337488752133353830942042,0.465705978720961311090321,0.0357498093954947485095808,-0.0173933544270655077168541,0.00497858465258592050584063,-2.16865360634415835477257e-05,0.0163405513392694164143126,-0.00160421786330512293125561,0.00669530830545972226175433,0.999842582346152197736444,0.0567125569677903451637491,0.0458625337398484156370415,9.78326642745227559316845,0.00293347417679032471810041,-0.0197753825114253788119978,0.000175503719234459157035391,-0.0594345660768394942752302,1.76191446995320721846667,1.34865493752988263587156,1113.53009046943134308094,1143.30489780828361290332,1138.50127342746327485656,1129.65227884243427070032,-318.539889691289715756284,-101.226838968525385098474,-1114.13754786660865647718,-662.487425379654723656131,163.376276325353444462962
4.79999999999999982236432,0.255474022979218173823313,0.15142893029268875149107,0.399148986802570049370331,-0.0155799543340231268911955,0.00453236738731314751926771,0.0012707085636010479433311,0.016329306083635204693838,-0.00160911526531123711021565,0.00668712029459095011474368,0.999842826851829569179131,0.0557376174195285123413868,0.0454004963946043893496807,9.78277968237953565733278,0.00314344078707802640146318,-0.0200719415468741391173069,0.000114927469062065386014651,-0.0594268601802329515804146,1.76185997162178642483354,1.3486510281532479993416,1112.9744315221896613366,1142.91927371225915521791,1135.51472702218870836077,1127.67751968311154087132,-84.3009842034025211887638,-172.709003040476147816662,-1025.8167261368489562301,-783.69534839172808915464,163.374912528835011471529
4.80250000000000021316282,0.115934644428972763452457,-0.0365321803491332267044278,0.5984431203902017548657,-0.0145043963379918646600109,0.00309127320782564629988998,0.00368563316441641647056016,0.0163172199647280691259255,-0.00161795335995735764002268,0.00668044680540910446736591,0.999843070306741354968949,0.0544071279360093251753483,0.0446766613410334578748717,9.78221799285922521960401,0.00334539773870050913609497,-0.0203625908825281858038903,5.88348529092909498100505e-05,-0.0594175839224939869587239,1.76180754723640098369231,1.34864472277863112203988,1113.10858554841433942784,1142.44135279308125063835,1133.37218979677913921478,1125.73380210047571381438,160.229865185559674500837,-208.314596978793701964605,-747.545115995233118155738,-823.79138827388419485942,163.373768296450776915663
4.80499999999999971578291,-0.06924410665906804984715,-0.119889664820446370518958,0.643408222249228445299707,-0.0143700913355664112308618,0.00140852506277387690657166,0.00727208389845021042907636,0.0163065041685250128322693,-0.00162687099455847495113603,0.00668034845798339254469012,0.999843247751777020049246,0.0526873163620799472850464,0.0437215640965037399823245,9.78157579269603516536336,0.0035353198519933104124191,-0.0206516437980913125649352,9.33550291695305501510349e-06,-0.059406434537528064743217,1.76175752244658556655565,1.34863647322177682141842,1113.77558084811744265608,1141.87770072736520887702,1131.77700144221262235078,1123.55856274174220743589,371.99814588448924723707,-246.938701743789152942554,-557.724278153694399406959,-971.631178543587111562374,163.372612017662817152086
4.80750000000000010658141,-0.304180371438496743863311,-0.098992016786417919016472,0.499890121433961387431566,-0.0152357136576556726620391,-0.000322693656960185506783062,0.0120124049555812521111742,0.0162949147726444767969589,-0.00163507071827938754368659,0.00668867503160687059543532,0.999843382199384955733024,0.0506140558524884043301029,0.0424864761773217081142207,9.78084927754846411573908,0.00370948543445771480864259,-0.0209435051485818944649875,-3.25485043580843501700994e-05,-0.0593935498305579456790326,1.76170922351634096081341,1.3486269862228741356347,1114.96857627783674615785,1141.20665928436233116372,1130.58356840601072690333,1120.87564620775788171159,459.71119447069304442266,-230.891674877975958679599,-317.85367166798585003562,-955.116888232838277872361,163.371205519762554558838
4.81000000000000049737992,-0.482697519441647127091954,0.000612664181476901825718073,0.234598299907141205622452,-0.0166665380453292627516149,-0.00126374063634574450298853,0.0149691057750579673696345,0.0162808728129630077285928,-0.00164519210664331979113162,0.00670506384430353315900808,0.999843495990779929094572,0.0482994968508049099531476,0.0409435818989577482440723,9.78003582769039603306283,0.00386465262964354573996251,-0.0212422543745927304426058,-6.69215277397789656994853e-05,-0.0593785831480140788296573,1.76166242849514032009495,1.34861719800949431125048,1116.0741368204712671286,1140.72324235297514860576,1130.18773308387244469486,1118.78297830057726969244,410.705730248318673147878,-164.235205321032339043086,-45.6436703901100102598321,-752.564593966115012335649,163.370013716369129497252
4.8125,-0.616783953052811639850006,0.147031042200928163676821,-0.121106900601844702514143,-0.0186245746564180220117279,-0.00135523462588925868929635,0.0152726830033240931761007,0.0162629510133616185518779,-0.00165802389018147324460661,0.00672907286049577967046442,0.999843613767742778186687,0.0458268622252022833629681,0.0390759829855445439683592,9.77913652691081303203191,0.00399821507786560920161278,-0.0215512951241756262055205,-9.51114047023331058219875e-05,-0.0593612836526084611254994,1.76161681818386073317129,1.34860762375101406185252,1117.02210492907829575415,1140.38548325775718694786,1130.35535005406018171925,1117.11282323792738679913,325.829813791194851546607,-104.07981328831050404915,180.289403100600083007521,-580.299078429892347230634,163.368796485039325716571
4.8150000000000003907985,-0.707694273654727701305944,0.320971826377481117553714,-0.558912654928405472354314,-0.0212934829320881383041275,-0.000171612234808493933696169,0.0124532513498078964420124,0.0162403793546087304999759,-0.00166872361098891028481639,0.00675819911725304440369699,0.999843771953873861058071,0.0431744050708620097367429,0.0368874879897162222253115,9.77815786875986070469935,0.00410856607137459559769832,-0.0218730275814138959422639,-0.000119612476652285735535808,-0.0593423420621478903136392,1.76157129398007428200401,1.3485992644635855786106,1117.70328588942720671184,1140.20284328653360716999,1131.08918009937542592525,1115.88148290842786991561,146.320954122032560462685,-24.2027200227317429437335,335.686809010447063883475,-294.574508307829887598928,163.367300609777828412916
4.81749999999999989341859,-0.720435848827619351730789,0.424833302328552875337664,-0.874337168087863658705317,-0.0236529621191183918316181,0.00177616651134294175999606,0.00867157985834409762715413,0.0162119823335600057867545,-0.00167577956379310146796391,0.00678893811614864582659745,0.999844014880818421353581,0.0403883116303987987905089,0.0343792777171048058448832,9.77711185502400326186034,0.00419528623742226793730259,-0.0222086579601534633843229,-0.000144062100396697713965144,-0.0593233543042227598474092,1.76152384551376384180799,1.34859433349724833206551,1117.75370969968844292453,1140.26446965764353080885,1132.03378409911238122731,1115.63995069638826862501,-99.746345390715163148343,73.4187920354558798408107,418.06494352736973496576,76.8027412324970981671868,163.366021271399887382358
4.82000000000000028421709,-0.672944175020485646498969,0.451516639921908713439791,-1.09951582066388020564318,-0.025894731892792625244093,0.00435938954307713618513409,0.00489611794853367972985003,0.0161764902229226507912596,-0.00167903856108696019830417,0.0068196896306496699452504,0.999844374434848637278606,0.0375417690367209760937683,0.0315545555954276635279854,9.77601692236855512874172,0.0042590920109811594707061,-0.0225582392259915075205523,-0.000172836898053864125926471,-0.059306050320024450428491,1.76147273769314893776539,1.34859392663292965153232,1117.20455416247364155424,1140.56993724671087875322,1133.17950481701222997799,1116.26549661459034723521,-312.289278321675112692901,163.342218212577648728256,471.107251616977976027556,383.245430582345761649776,163.36470553559448148917
4.82249999999999978683718,-0.58717384388465809763602,0.404376782650225863324778,-1.24320637812854162262965,-0.0277730349537842237384044,0.00701611224379049009530762,0.0015302629056783614153181,0.016135098291190783786897,-0.00168005988331587662910904,0.00684866253118056062670904,0.999844842308370562733444,0.0347396804560747007872834,0.0284673968989011816344004,9.77489718148542330311557,0.00430178100829601856719409,-0.02292091118913726702222,-0.000210341112967549551115987,-0.0592903992878989760662023,1.76141824729462648235767,1.34859687272008232916676,1116.19226330808010061446,1141.08118074870640157314,1134.38932035719722080103,1117.556177849299956506,-490.560569845830741542159,249.822392006268131581237,478.994589268824029204552,643.741588037633050589648,163.363359211379474800196
4.82500000000000017763568,-0.476441139978301564372742,0.280094801267692927737585,-1.29572929705269723754668,-0.0290217675951521848765058,0.00881419281471716026254981,-0.00146104176441605058608952,0.016092107115052375204689,-0.00168208430243837309646382,0.00687257199268745573583761,0.999845368167118220270595,0.0321158399940825733942518,0.0252340850023725915551864,9.77378180492254955424869,0.00432602444080855581820533,-0.0232952567435855927013844,-0.000260351943127847711752926,-0.0592764322698110662779314,1.76136058430455277878934,1.34860214234718789327871,1114.75175131324454014248,1141.81904920674219283683,1135.57447776335629896494,1119.48420455477844370762,-682.61616926680835604202,362.301230712144842982525,495.950121383758983029111,935.235702889823983241513,163.361977178345512129454
4.82749999999999968025577,-0.345015607534221668828422,0.0816418040413698087309768,-1.26692937899582780403307,-0.0298306236839297883589595,0.00913246077654186749761323,-0.0049843468881220955729594,0.0160506584440508817679394,-0.00168803787195030089579584,0.00688597556859558979081015,0.999845935520016770858831,0.0297913686619399042943002,0.0219489758899532316771541,9.77270562831614064691621,0.00433512385984309144698612,-0.0236796412049905188879073,-0.000325725986890001756226404,-0.0592640165844369876113618,1.76130059815283668278596,1.34860779160029387035991,1112.77918246174613159383,1142.89268690226708713453,1136.86907096411596285179,1122.23235636374897694623,-720.841118279819852432411,406.991645040406694988633,441.972271039785823631973,1029.03985707214269496035,163.36028110571632510073
4.83000000000000007105427,-0.256605418768742210566813,-0.0901525683931377330715407,-1.17502097871208155410727,-0.0300709812802873351078592,0.00814938742471476608442149,-0.00795168908796862507204484,0.0160126132288490527488811,-0.00170041781731410188843734,0.00688995539538701275150689,0.999846503164061428670095,0.0278709250790530951857882,0.0186806399745389206668023,9.77170746228638620323181,0.00433233621889708188368306,-0.0240725597910466868056822,-0.0004081543035362706988399,-0.0592529975387504556638696,1.76123863325063978457763,1.34861324575860885843781,1111.14754572184551761893,1143.85400743194418282656,1137.78433911855518090306,1124.62940384013904804306,-598.785359998143690063444,369.932007958174324357969,318.900081847091485087731,919.49136821666979813017,163.358840551082352021695
4.83250000000000046185278,-0.207194963264071857489412,-0.237230617144986666300355,-1.02199764997543307565309,-0.0300641980192053424880694,0.00657658901297076062264502,-0.0106923759641321895058619,0.0159816279062973097546685,-0.00171767887149391939097254,0.00688856956034597685267773,0.99984698712568376155474,0.0263710929274840119584944,0.0155324258528800607237486,9.77082738580973675368568,0.00432078410193612906520233,-0.0244728004456092884666418,-0.000507908260900918548386151,-0.0592436419020542365254656,1.76117482121611268475192,1.34861849970940195220237,1109.78525566175494532217,1144.74234694205824780511,1138.46357137335166953562,1126.82981320483304443769,-487.608083546284831299999,338.361119673580049038719,227.453927426454669102895,858.860827731196081913367,163.357378641631527216305
4.83499999999999996447286,-0.201894289081516797867977,-0.37140746785910994098856,-0.780309125688982474500222,-0.0300020227481914356082449,0.00466876151812348379188666,-0.0134882451079459918241721,0.0159593346228712913703607,-0.00173512305463574025010676,0.00688485336744470988179501,0.999847347781735451555107,0.0252364117436339741029627,0.0125677528875730581958692,9.77010550248238018866687,0.00430341423224053689494673,-0.0248795387279943623626277,-0.000624027490369602542800986,-0.0592348501322865275686702,1.76111038502928396454195,1.34862247035381854765035,1108.70950530411414547416,1145.54581303031204697618,1138.92160875568742994801,1128.92370797879493693472,-277.809779638806958246278,228.682428498637250413594,96.3528628326478298049551,639.792100549007045628969,163.355609667328451450885
4.83750000000000035527137,-0.241373581724207086907086,-0.452254841667201812338561,-0.541780464119210880546973,-0.0300677955697899908227289,0.00344082377655264724444772,-0.0152467752922772984552902,0.0159448138531050227773012,-0.00175337640437087083876422,0.00688133569991962977530076,0.99984757967339488171632,0.0245045273174915520519868,0.00979849995377821136877117,9.76957879110164384428572,0.0042828064118270864346627,-0.0252923680150973148594851,-0.000754513440981467112950165,-0.0592254573672300263509349,1.76104632560447860178954,1.34862429859774368701153,1108.39620676356094008952,1145.88575908455140961451,1138.94533568751489838178,1130.02877370757801145373,3.76874982739544828191924,52.1974871622216838318309,-74.9270639392323118954664,282.223326240415758547897,163.354131308149788992523
4.83999999999999985789145,-0.316923729996113623386123,-0.515427517828365489016562,-0.28083138473485730335355,-0.0304459492702420266019292,0.00263167763314514028399893,-0.0161448574123663410317953,0.0159339146726348891702774,-0.00177395418239721094563754,0.00687684328671654600956265,0.999847752562748492977107,0.0242193334390053555127409,0.0071725472830831138448815,9.76927961040206227494309,0.00426133943159978916676023,-0.0257111474703985883050184,-0.00089655124908118578701266,-0.0592153925359354682544932,1.76098295486124967190733,1.34862336835872675955272,1108.72834905325112231367,1145.80680046612314981758,1138.54697343599127634661,1130.33482460999698560045,277.45519333830679897801,-130.655070177274922116339,-272.549799743689050046669,-52.8802583552999223570623,163.352658377312280890692
4.84250000000000024868996,-0.430510297145148324027275,-0.586640976817785264607608,0.0385543258654596973644679,-0.0314579130875156723345931,0.0017114488738020766644965,-0.01640919245182650282322,0.0159217580529299532199339,-0.00179618821798380721467547,0.00686944103902517588799981,0.999847957408178777960472,0.0243713887265546436111663,0.00462289495314946452531046,9.76923339239673538259012,0.00424114434352634416675043,-0.0261358211014658878279526,-0.00104668187280711612145712,-0.0592052694076791036215113,1.76091929855091389178767,1.34862015569762450084568,1109.78348273025244452583,1145.23248373366504893056,1137.58258668879648212169,1129.76437241580151749076,467.122994538441105305537,-278.119346638283332140418,-422.744586704502523843985,-345.278662485687220851105,163.350908712952531232077
4.84499999999999975131004,-0.528258663426122820894193,-0.647380819640411830917515,0.296468742275602048508176,-0.0328469266563658698898642,0.000782462380072670646291577,-0.0160842761399755534990064,0.015902546391983872486886,-0.00182036682819967845364806,0.00685841670320292470103274,0.999848290275501150325965,0.0249594892326895495537897,0.00206337138377335471695062,9.76945693773706480556029,0.00422406968996284163525567,-0.0265662608876422630388436,-0.00120116634203475082173784,-0.0591942781212287660874694,1.76085486617275144283212,1.34861532240191550613417,1111.0639640259432781022,1144.41620373293176271545,1136.43325050246880891791,1128.6084312975685861602,548.565055014308086356323,-373.444537318763423172641,-502.363651811867157448432,-553.826189034737581096124,163.349474123470827180427
4.84750000000000014210855,-0.612003603191310641129519,-0.706697424345657854161118,0.530078467622480120624573,-0.0347007235143592454584827,-0.000377230507097399707285706,-0.0149987475283232096073815,0.0158730158229109935552614,-0.00184713943752150928576117,0.00684309957349526955944219,0.999848806512210419583653,0.0259799287652416888150242,-0.000543769476030991905091128,9.76995659329021215455668,0.00421183021564020595300937,-0.0270021833659147038331216,-0.00135604955727840897905523,-0.0591821933240384151497793,1.76078934937044184749766,1.3486088857459510581549,1112.52630800532392640889,1143.36526104707127160509,1135.07076842973719976726,1126.99524147062788870244,578.352762947634460033441,-440.56016497054247338383,-549.834135835686083737528,-669.239302687160488858353,163.348074307582294295571
4.85000000000000053290705,-0.67581054551348984649195,-0.756347935047642860872941,0.731867843845928400803302,-0.0366190098149246079373142,-0.00181628695408081203971351,-0.0131338958746185074238921,0.0158321430436674411013076,-0.0018754162565037119092537,0.00682538311385502607236964,0.999849511895424925000952,0.0273858597586432578330218,-0.00319353201348157589301024,9.77072826187770182571057,0.00420601280622916531837241,-0.0274431628762438761803821,-0.00150734481959464636235957,-0.0591697647492891790066416,1.76072212733882116353357,1.34860072716339018938925,1113.95572784068190230755,1142.21340290807870587741,1133.68407982328994876298,1125.26223478413226075645,527.737379231268619150796,-465.505411303421112734213,-519.585942190235186899372,-652.112707868323241200414,163.346711242952807197071
4.85250000000000003552714,-0.711977912179598604325292,-0.778339030529687225801183,0.884686361132634546677878,-0.0381835505239025083112914,-0.00365060541157676173018576,-0.0106110437514494795885334,0.0157814522210707151861353,-0.00190283972250057773108189,0.00680988974898916795547299,0.99985035534098432030703,0.0290971230273778663777406,-0.00583232672957770259536403,9.77175751033190387317973,0.0042081605229422674660511,-0.0278886929538624817048742,-0.00165119885973443489106394,-0.0591575036739890730563829,1.76065305141288885870665,1.34859131446100910523,1115.16499490148021322966,1141.03773399055421577941,1132.47283871878607897088,1123.73467793128634184541,455.286253436007143591269,-504.792701669031714573066,-445.132101152476423067128,-540.588113246542548040452,163.345402238814727979843
4.85500000000000042632564,-0.721006779696281130398461,-0.749617402853935965723053,1.00722790273317075460113,-0.0395654667633107831603567,-0.00632456709694977949054451,-0.00753742138929759143695097,0.0157209690112983802023905,-0.00192286691669643389386579,0.00679966992455765910363663,0.999851328167124853152359,0.0309435874041206898654721,-0.00843637533235244707618961,9.7730217433559527506759,0.00422002765242572401571675,-0.0283382460500452085239154,-0.00178423921843937419162707,-0.0591463156891550920213341,1.76058202136028563167258,1.3485813854723309734851,1116.23215910786188942438,1139.68943939973360102158,1131.4584193175276141119,1122.5592942178996054281,325.972287577594784124813,-477.195775820438200298668,-274.683109414678654047748,-274.502193144832233429042,163.343906676012437628742
4.85749999999999992894573,-0.693422093378048387535273,-0.665652515707590430871221,1.06171986440663057571498,-0.0405890984523078340862057,-0.00899823810738455652502576,-0.00540112973435751073797428,0.0156518362612843402181806,-0.00192804443650555095736421,0.00679589219864661781000947,0.999852418776013718293427,0.0327304615367850076923517,-0.0109610149280618685008193,9.77449028745816228536114,0.00424349473011171457459412,-0.0287913917650547065973932,-0.00190354279978618284863146,-0.059136467266187799085575,1.76051003786781801174754,1.34857058654293560095994,1116.7948563393681524758,1138.65175511145207565278,1131.099423171712714975,1122.36216696556220995262,173.623593689266328965459,-396.857266164906206995511,-30.8678103169320117160623,111.278595174556002689314,163.342732142974767839405
4.86000000000000031974423,-0.611364716129908947195304,-0.513992049637857384425388,1.07022783136822652316766,-0.0420085590775002154506623,-0.0116271791215395523672038,-0.00354722163423410417892878,0.0155777527456707337583097,-0.00191645296871251419670856,0.0068018166744451789840209,0.999853549546726005914365,0.0343654328941366965510795,-0.013313770762135496150691,9.77612474533651365504738,0.00428013466408196964485544,-0.029247879564209083164128,-0.00200666529384504067207162,-0.0591273817854693975459845,1.76043793439939455502952,1.34855861034004731457969,1117.1002770763082025951,1137.70515306890911233495,1131.30408026594295733958,1123.11568719377237357548,105.623583488661523688279,-402.008405397381864077033,211.51757019033991014112,538.143144038588275179791,163.341642031049275374244
4.86249999999999982236432,-0.421017961031991794218499,-0.270506478736024347231393,1.02082469939480158238609,-0.0449544072040836753534343,-0.0134903388991926831419477,-0.000688905595354886773548642,0.015502908423038350149703,-0.00189045606864560069952652,0.00681562474682935025976915,0.999854661346286088807744,0.0358357176475554844996552,-0.0153939490353339480943617,9.77788141465389948336906,0.00433145929472292419426527,-0.0297074929325887859832278,-0.00209184701582781993473015,-0.0591187193143296804698217,1.7603657596857373857091,1.34854566307724188511941,1117.32297425681144886767,1136.64171308446520924917,1132.15701102266439193045,1125.05288268575509391667,78.8081124394937830857089,-383.895878061329312913585,394.045831848924763107789,841.294100791146547635435,163.340441688726002666954
4.86500000000000021316282,-0.172376645364918174019309,-0.0415150484375904418876679,0.91950563780224292553811,-0.0481330189612236003515733,-0.0134995072569351823310591,0.00249986915560359125934586,0.0154289332268770524453361,-0.00185445958069057996453477,0.00683129401027362474080329,0.999855760175652141796832,0.0371654529311142983738492,-0.0171521389613920327565921,9.77971428952329091544016,0.00439878271328810691725986,-0.0301698903460098678819268,-0.00215830338595404463628014,-0.0591103945752844417427241,1.76029359291040377044624,1.34853145639726523796753,1117.49431763850566312613,1135.78567367860250669764,1133.27430942518753909098,1127.32215769772801650106,80.9192294635994500140441,-340.235024506371701136231,495.420840571670510144031,964.706481238247420151311,163.339537791562150914615
4.86749999999999971578291,0.155340130319421731996954,0.182788038661362312042868,0.749276123084613887570526,-0.050246170460444987415638,-0.0122121209428145433700807,0.00548498322001938348746464,0.0153546712274537072023817,-0.00181313093969651334749771,0.00684459852010083687895436,0.999856883584509414930608,0.0383821981639603515557013,-0.0185951818891471887251754,9.78157744174726317964996,0.00448280417742193560554087,-0.030634485565916802496389,-0.00220637233823979496058487,-0.0591019371937413287576568,1.76022108566961232867243,1.34851651583276566093161,1117.72757040412943752017,1134.94053796193338712328,1134.63411522552269161679,1129.87641509194622813084,118.614960347170182330956,-365.084424429286229951686,605.153625610377389421046,1082.22130524902718207159,163.338740737526393331791
4.87000000000000010658141,0.575957160209571217279745,0.425195206800952407721894,0.476965647415916460527541,-0.0498223938674549615690523,-0.0101760768614972268997221,0.00746236700495813993355698,0.0152811757971777588405171,-0.00177156658536758819522117,0.00685319761863409111085632,0.999858022875063090495473,0.0395225833432820417012721,-0.0196888015210817113320729,9.7834259325007355556636,0.00458355537237962323837692,-0.031100331916567927614814,-0.00223732933328536602590741,-0.0590930212983848610064364,1.76014722397556466759738,1.3485021369133276536445,1118.08739244024150139012,1133.96025155645611448563,1136.30007755323936180503,1132.73326422397303758771,136.857845794999292365901,-342.429665207547373029229,582.061148668572059250437,941.877474191631449684792,163.33791437591526118922
4.87250000000000049737992,0.884119460394578893236428,0.603923497552221189010879,0.21001309537724821563387,-0.0468277634940941281382898,-0.00883570309257413442904916,0.00785250546217130911130777,0.0152099691241265270319483,-0.00173352861206576723193673,0.00685857900602105177711998,0.999859139504550964439034,0.0405992015116155846587986,-0.0203919029014392322318727,9.78521854703457449886628,0.00470028786223291618340259,-0.0315660982697254788309493,-0.00225345575029133700015183,-0.0590834857136117996834201,1.76007063250020201472523,1.34848939243555654421414,1118.41185963310454098973,1133.22838963589538252563,1137.54442096886600666039,1134.58580246290512150154,116.887875833711163409134,-251.435449605065429068418,435.570765353040940226492,573.830278026583528117044,163.337338105505097018977
4.875,1.07732783392985886905535,0.766613870320684065440275,-0.0809958805187455666008134,-0.0417289951262108799179273,-0.00806063711680774126755455,0.00789887081142684466250614,0.015145639924620098171193,-0.00169841745641145878270573,0.00686410202749412976658272,0.999860143154042146917959,0.0415435239692917568365971,-0.0206053676858971995811132,9.78691938994033527876582,0.0048316404763012552742163,-0.0320301775429087942637096,-0.0022576613241271051464587,-0.0590730096923804612329967,1.75999187174896576379979,1.3484786434791224962737,1118.67183181941004477267,1132.7030743084308141988,1138.47793138000452017877,1135.6024156141058938374,73.8477160029576538136098,-147.776346271669780207958,318.369107081850813756319,233.103089821502607037473,163.336882137827586802814
4.8775000000000003907985,1.13616078238857376447868,0.944991009583021401851965,-0.443000841308134440943434,-0.0351447897412771742553517,-0.00685317512153044237216415,0.00796835067587483604489851,0.0150939896343248100563095,-0.00166623844333290685101878,0.00686937904671088700458981,0.999860950188387276327262,0.0423048128159581732221639,-0.0202084985642630027280475,9.78849898311384336579977,0.00497603306051262045395234,-0.0324907937739702390445018,-0.00225334772443312562895112,-0.0590620683899713214137783,1.75991150833180420853807,1.34847031601223110719445,1118.78109821311932137178,1132.48950790453704939864,1139.13626650427522690734,1135.75131791201260966773,-11.4241891642452788602213,16.1973865974235913256507,162.311637543101653591293,-108.527967704824320094303,163.336476804114596461659
4.87999999999999989341859,1.05098119890496222161858,1.06730483413903853850968,-0.740052395997651490944236,-0.0309017502203825199236231,-0.00494328069504030610803458,0.00750009975630751887093473,0.0150562828827672731679677,-0.00163806934035290821007058,0.00687192694614362220573156,0.999861558666820582352841,0.0428599127408488822510435,-0.0191718098088631550002248,9.7899363735490059212907,0.00513162764070667319626917,-0.0329461034808217687053222,-0.00224443656750067041527608,-0.0590503362921120239503736,1.75982923854666295504501,1.34846451618757101620361,1118.61471087358881959517,1132.78406124141793043236,1139.28948956772001110949,1135.05977577558178381878,-134.42250801208788857366,234.700646786000561405672,-8.87880833065556451799694,-398.419795298977362563164,163.336258056696891571846
4.88250000000000028421709,0.875623225585284936656194,1.13479184421225864909388,-1.00078444888402473544886,-0.0287915501839284097840288,-0.00214590958168480372067477,0.00561346694246141197925937,0.0150295094963413602973112,-0.00161764087255968731435263,0.0068709690042184912162071,0.999862014369268914393274,0.0432453382121953666672454,-0.0175524773290976349171544,9.79121914610288968106033,0.00529612383790441145631211,-0.0333943293005504182602294,-0.0022350116846535251352579,-0.0590375752251235327849876,1.75974483484533883448364,1.34846072945828132638724,1118.10898567305889628187,1133.66301113846702719457,1139.0918724626219500351,1133.75921893551776520326,-260.814625014660236956843,447.944914407626583852107,-120.343336701719479719941,-572.421905380964176401903,163.336162450172054150244
4.88499999999999978683718,0.672535022073439403555994,1.13376207227193659399234,-1.20033622769478487413153,-0.0280897911531692266728921,0.00112458540811648266023737,0.00260805450963113791273962,0.0150068955490498881499839,-0.00160480989442921451355872,0.00686785060003603214234813,0.999862409658025641512324,0.0434306348948886034033734,-0.0154832874556719013448003,9.79234408273704381997504,0.00546682957268126296090927,-0.0338338973904819054205895,-0.00222888381978600565169746,-0.0590240019524474815448833,1.75965812954679701185512,1.3484583571443062854911,1117.31063774851554626366,1135.02378581345601560315,1138.68777288421142657171,1132.19766624867702375923,-379.843053983594359124254,637.60142248571810341673,-187.140375529001516952121,-625.425146272768529343011,163.336167597483154168003
4.88750000000000017763568,0.482984418089054901024326,1.02770889146449118101145,-1.28982001132099588502911,-0.0282229350185800101358247,0.0048256932057429979820995,-0.00125891797527190470694369,0.0149868466213646835127893,-0.00160069196599282067942915,0.00686633302419427556106957,0.999862739547397572081877,0.0434209531098081052968851,-0.0129978332742789470799494,9.79331353559574324663117,0.00564067853587432201101226,-0.0342636455015296603754393,-0.00222877568514901923044103,-0.0590094504829143870483499,1.75956930659449728437949,1.34845678773893684621044,1116.20977040314096484508,1136.85101825089554949955,1138.15617058497696234554,1130.63209320415398906334,-526.69533545559932008473,856.581560283230032837309,-234.744277318400691001443,-620.404154390657367912354,163.336291311831359962525
4.88999999999999968025577,0.305425761375693383126162,0.767328262983468567526302,-1.23620607672267235344066,-0.0284378025852453503174999,0.0093587591954146977929474,-0.00645746150524768511291818,0.0149688658344907452035777,-0.00160545113750049464086678,0.00686817250790066387983179,0.999862998446417905462624,0.0432140121323884851545216,-0.0101091444951757480907872,9.79413555543352387644518,0.00581461202240150191317136,-0.0346829100753642191601323,-0.00223638439720507190000554,-0.058993784692185122220387,1.7594795652093482285494,1.34845497136897018997104,1114.67716107123760593822,1139.30669361487207424943,1137.51405149761944812781,1129.09564547672380285803,-570.141514699219783324224,892.844008263519640422601,-221.10544148600200742294,-470.851145774177950897865,163.336571428222640633976
4.89250000000000007105427,0.205683214910325234958677,0.450266545349320590485576,-1.0480320655475561242298,-0.0282380090765134116048696,0.0124760461211431573219643,-0.0107598315146628029093101,0.0149504707086760071921283,-0.00161813777968641196551569,0.00686992814574567244728653,0.999863247958322376440776,0.0427968046610561064779787,-0.00686922996370945004862563,9.7948232778244594953776,0.00598589578632176440298185,-0.0350915384699222662745477,-0.00225253817099103827853446,-0.0589775342494694987394155,1.75938926749239477054232,1.34845245648815992289826,1113.35906282964492675092,1141.31523829221305277315,1137.05064337754697589844,1128.27783747528314961528,-500.845667866373275955993,734.635390836568831218756,-162.46398045629763373654,-212.699670830182583358692,163.336909449245268888262
4.89500000000000046185278,0.151040728205082352975097,0.0693144233087033129203647,-0.723460756290264406231927,-0.0277768649238627207687102,0.013774781379020245575262,-0.0140147990187423771013542,0.014929099160319057870705,-0.00163806322937209958810756,0.00686818778821292677538857,0.999863550980730209083447,0.0421724281818397772614304,-0.00333217624732004558119058,9.79539272910877123479167,0.00615182040570901120940528,-0.0354899088527768705181309,-0.00227714641381710370532376,-0.058961013241717090405114,1.75929954998145099409612,1.34844854948414694106873,1112.1729327319053481915,1142.97987056905549252406,1136.70173159533783291408,1128.03214712257272367424,-454.047560797799292231502,598.9747974784804682713,-131.660774981631305990959,11.8051385401033961386474,163.33734861208290567447
4.89749999999999996447286,0.127711099097668756563451,-0.391085985401077640410961,-0.21918295319909547602677,-0.0275217302345522642215148,0.0125736698168285310206471,-0.0159546314404180079871143,0.0149051262161032215675105,-0.00166395379611834239030888,0.00686123455214064908308513,0.999863915963012273024901,0.0413434986130326170838956,0.000505088725506419589095231,9.79586058364434109080321,0.00630959685385546441283022,-0.0358788039596523652963178,-0.00230912767851813079816869,-0.0589439026346671168798963,1.75921120161743194110215,1.3484429640518118542758,1111.08882502565597860666,1144.31011227960539144988,1136.39233950263883343723,1128.33686316798366533476,-319.223730884284577768994,355.308864056231243466755,-106.956622102281926345313,181.118584705886178198853,163.33798311747864318022
4.90000000000000035527137,0.135732157163972827484955,-0.725394144088395642633316,0.253990096830047029641264,-0.0275060824768558649655592,0.00971635380924445318795435,-0.0159999897010786561180051,0.0148792386534609046705446,-0.00169228186035437033578332,0.00684804084237477378449555,0.99986434565063730950385,0.040278450269877613676428,0.00465168772003013430982321,9.79624364196325103648633,0.00645644464662132374493941,-0.0362591069095904647290318,-0.00234679423452291121068858,-0.0589258540306514741469179,1.75912404815665701640626,1.34843546585229834278152,1110.57681407748395940871,1144.75641488933661094052,1136.16694848482643465104,1128.93774004610213523847,-107.007014629336950406469,38.8880290568985529375823,-103.211571070962619955935,257.679370287092808666785,163.338594702287622340009
4.90249999999999985789145,0.159688171022416336430894,-0.964695091724629860685525,0.727076866902705676309893,-0.0273243397264041412708657,0.00619311093186066148608138,-0.014789779200468021816417,0.0148534042536659673106048,-0.00172017500613090633214408,0.00683189039683743462583188,0.999864792770108534725182,0.0389676744306668432216156,0.00914073331526682464343025,9.79655694088223150117756,0.00658937057602774177433869,-0.0366315456093895264189086,-0.00238807967337624060116807,-0.0589063382165378457422378,1.75903640779911629721255,1.34842654588486099420663,1110.55378995250930529437,1144.50455242488988005789,1135.87628164728403135086,1129.62526001941910180904,107.949333267154116811071,-250.673557780106307291135,-165.060217492240440151363,253.431139027685219389241,163.339284480662627174752
